Folder: Spicy-Raman_New/Spicy-Raman/use cases and example/Put_Raman_txt_Files_Here

Note: Spicy-Raman/README.md
# Spicy-Raman <img src="https://github.com/nsuzuki97/Spicy-Raman/blob/master/logo.png" width="25%">

[![Build Status](https://travis-ci.org/nsuzuki97/Spicy-Raman.svg?branch=master)](https://travis-ci.org/nsuzuki97/Spicy-Raman)[![License: MIT](https://img.shields.io/badge/License-MIT-yellow.svg)](https://opensource.org/licenses/MIT)

<img src="https://www.cei.washington.edu/wordpress/wp-content/uploads/2016/01/CEI_logo_tag_color.1.png" width="555" height="160">  ![image](https://i.dailymail.co.uk/1/2018/09/27/17/4591062-0-image-m-35_1538065690576.jpg)

### Background
-----------
Microplastic ingestion has been considered to be a serious detriment to marine organisms, from oysters to orca whales. The majority of these samples have been identified to be one of four categories: polyethylene, nylon, polyamides, and fluorescents. Although comprising only about 20 - 25% of the total samples, this still represents about 10+ hours of analysis per study. By categorizing and filtering out these major classes of spectra, researchers will be able to focus on identifying novel groups of microparticles.

### Project Scope, Quick Intro
-----------
We employed TensorFlow (and the keras API because we are beginners) to create a model to classify the Raman spectrum from orca whale samples. The goal of our project is to machine learn the pattern of Raman spectra by polymer categories(e.g. polyamide, polyethylene), and let it expect the type a designated material falls into.
In this specific model, 3 levels of neurons were used in order to optimize adequate complexity with ease of model creation and speed.

We acquired Raman spectra from Luscombe Lab. We acquired them as .txt files so that we can finally change them into image files that can be used with Tensorflow(or Keras?). We first plotted those text data and converted them into image files(.png).

However since the amount of data we could get was less than we expected, we talked to Jimin Qian with this issue, and we decided to do data augmentation.
We first converted images into a numpy array(img_to_array), expanded dimension(expand_dims), and created image data augmentation generator(ImageDataGenerator(zoom_range=[0.5,1.0])). We used os.scandir() function to iterate over data not yet augmented and got augmented data.

We then created image databse in order to load these image data into codes.

The augmented data was then separated 80/20 into training and validation data.
They were stored in either "trainingdata_Pictures" directory or "validationdata_Pictures".

Each train and validation set were then split into 5 categories: flourescent, nylon, polyamide, polyethylene, and unknown.

### Sturcture

```
|-Licence

|-README

|-model_train_and_validate/

  |-Post_Augmented_Raman_Pictures
  
  |-Pre_Augmented_Raman_Picture
  
  |-Raman_Data
  
  |-py_files
  
  |-test/
  
  |-preprocessing.py
    
  |-Augmentation.py
    
  |-pic_class.py
    
  |-TrainTestSplit.py
    
    |-test_Augmentation.py
    
    |-test_pic

File: polyethylene_1.txt
3201.26	21.0564
3193.54	21.0183
3185.8	41.954
3178.05	25.123
3170.28	8.35786
3162.49	41.7071
3154.69	54.1126
3146.87	24.9258
3139.04	58.0457
3131.19	37.2415
3123.33	16.5191
3115.45	41.2163
3107.56	16.454
3099.65	28.7375
3091.73	40.9724
3083.79	40.8913
3075.83	24.4862
3067.86	36.6565
3059.87	20.3244
3051.87	48.6817
3043.85	40.4875
3035.81	28.285
3027.76	24.1961
3019.69	16.0986
3011.61	32.1332
3003.51	52.1124
2995.39	72.0119
2987.26	59.8902
2979.11	79.6943
2970.94	91.4654
2962.76	91.2827
2954.57	150.513
2946.35	142.306
2938.12	260.373
2929.87	248.04
2921.61	267.189
2913.33	258.81
2905.03	316.993
2896.72	363.224
2888.39	409.268
2880.04	482.353
2871.68	318.334
2863.3	418.425
2854.9	402.116
2846.48	520.924
2838.05	180.993
2829.6	103.765
2821.14	49.8599
2812.66	68.8971
2804.15	99.3168
2795.64	49.5579
2787.1	49.4575
2778.55	41.7638
2769.98	37.8901
2761.39	26.4692
2752.79	98.1144
2744.17	75.3192
2735.53	97.7158
2726.87	105.018
2718.2	119.776
2709.5	104.591
2700.79	85.7386
2692.07	63.2426
2683.32	118.802
2674.56	88.9192
2665.78	29.5791
2656.98	66.4168
2648.16	77.3275
2639.32	73.4943
2630.47	69.6764
2621.6	80.5124
2612.71	76.6948
2603.8	65.6033
2594.87	80.0169
2585.92	32.6668
2576.96	72.4434
2567.98	79.5235
2558.98	72.1449
2549.96	100.794
2540.92	61.0702
2531.86	46.6042
2522.79	28.6202
2513.69	71.4024
2504.58	57.0035
2495.45	78.2174
2486.29	63.8633
2477.12	99.1366
2467.93	81.2645
2458.73	52.8884
2449.5	63.334
2440.25	94.8032
2430.98	87.5978
2421.7	76.9254
2412.39	69.7862
2403.07	83.5686
2393.72	79.9192
2384.36	93.622
2374.98	72.6647
2365.57	75.9655
2356.15	110.264
2346.71	75.6472
2337.25	89.2136
2327.76	106.147
2318.26	75.1715
2308.74	68.1939
2299.2	112.283
2289.63	115.442
2280.05	105.034
2270.45	71.0018
2260.82	84.3475
2251.18	87.536
2241.52	77.2719
2231.83	90.5185
2222.13	97.0176
2212.4	116.842
2202.65	106.6
2192.89	119.671
2183.1	136.002
2173.29	129.093
2163.46	115.606
2153.61	131.84
2143.74	111.825
2133.84	88.6127
2123.93	117.898
2114	124.182
2104.04	123.917
2094.06	113.889
2084.06	142.869
2074.04	110.162
2064	135.791
2053.93	154.856
2043.85	112.673
2033.74	141.342
2023.61	121.806
2013.46	118.345
2003.29	156.389
1993.09	146.498
1982.88	162.071
1972.64	190.26
1962.38	158.207
1952.09	192.595
1941.79	170.125
1931.46	220.054
1921.11	219.577
1910.74	181.54
1900.34	221.747
1889.92	215.032
1879.48	251.88
1869.02	310.286
1858.53	266.264
1848.02	262.594
1837.49	286.682
1826.94	279.904
1816.36	303.845
1805.75	272.556
1795.13	256.68
1784.48	301.853
1773.81	301.191
1763.11	406.777
1752.4	381.651
1741.65	365.7
1730.89	379.974
1720.1	382.146
1709.28	387.308
1698.45	410.419
1687.58	454.35
1676.7	444.398
1665.79	514.838
1654.85	537.453
1643.9	465.155
1632.91	487.773
1621.91	516.187
1610.88	473.837
1599.82	525.641
1588.74	462.941
1577.63	458.987
1566.5	481.299
1555.35	520.972
1544.17	543.04
1532.96	512.852
1521.73	529.051
1510.48	576.903
1499.2	578.488
1487.89	620.265
1476.56	750.67
1465.2	1395.05
1453.82	1081.02
1442.41	1198.11
1430.98	874.553
1419.52	801.755
1408.03	766.026
1396.52	685.328
1384.98	700.662
1373.42	696.269
1361.83	764.722
1350.21	796.527
1338.57	744.528
1326.9	820.738
1315.2	827.2
1303.48	1030.26
1291.73	964.364
1279.96	766.425
1268.15	621.644
1256.32	565.338
1244.47	585.951
1232.58	475.338
1220.67	485.152
1208.73	511.234
1196.77	472.079
1184.77	479.116
1172.75	526.627
1160.7	449.972
1148.62	505.389
1136.52	523
1124.39	639.532
1112.23	541.947
1100.04	609.947
1087.82	523.501
1075.57	527.593
1063.3	941.648
1051	506.678
1038.67	442.314
1026.31	407.14
1013.92	385.229
1001.5	389.561
989.056	406.913
976.581	392.953
964.076	410.209
951.542	422.202
938.979	354.028
926.387	435.698
913.765	486.119
901.113	536.3
888.431	512.001
875.72	467.381
862.979	456.09
850.207	452.475
837.406	481.841
824.574	425.045
811.712	383.657
798.819	375.196
785.896	399.43
772.943	395.979
759.958	400.041
746.943	404.081
733.897	410.587
720.819	409.612
707.711	435.88
694.571	390.37
681.4	411.623
668.198	464.738
654.963	434.192
641.698	408.682
628.4	427.235
615.07	455.438
601.709	454.347
588.315	489.614
574.889	512.618
561.431	504.149
547.94	502.936
534.417	540.135
520.861	495.726
507.273	506.475
493.651	529.084
479.996	475.499
466.309	536.014
452.588	582.035
438.834	564.101
425.046	579.213
411.225	674.107
397.37	677.153
383.481	717.577
369.558	678.521
355.601	653.605
341.61	751.782
327.585	699.022
313.526	757.345
299.431	803.859
285.303	755.934
271.139	811.379
256.941	905.414
242.708	903.186
228.439	951.016
214.135	971.367
199.796	1052.74
185.422	1061.43
171.011	1155.67
156.565	1332.59
142.084	1311.35
127.566	1457.92
113.012	1561.36
100.669	1391.14