Folder: Spicy-Raman_New/Spicy-Raman/model_train_and_validate/Raman_Data/cellulose

Note: Spicy-Raman/README.md
# Spicy-Raman <img src="https://github.com/nsuzuki97/Spicy-Raman/blob/master/logo.png" width="25%">

[![Build Status](https://travis-ci.org/nsuzuki97/Spicy-Raman.svg?branch=master)](https://travis-ci.org/nsuzuki97/Spicy-Raman)[![License: MIT](https://img.shields.io/badge/License-MIT-yellow.svg)](https://opensource.org/licenses/MIT)

<img src="https://www.cei.washington.edu/wordpress/wp-content/uploads/2016/01/CEI_logo_tag_color.1.png" width="555" height="160">  ![image](https://i.dailymail.co.uk/1/2018/09/27/17/4591062-0-image-m-35_1538065690576.jpg)

### Background
-----------
Microplastic ingestion has been considered to be a serious detriment to marine organisms, from oysters to orca whales. The majority of these samples have been identified to be one of four categories: polyethylene, nylon, polyamides, and fluorescents. Although comprising only about 20 - 25% of the total samples, this still represents about 10+ hours of analysis per study. By categorizing and filtering out these major classes of spectra, researchers will be able to focus on identifying novel groups of microparticles.

### Project Scope, Quick Intro
-----------
We employed TensorFlow (and the keras API because we are beginners) to create a model to classify the Raman spectrum from orca whale samples. The goal of our project is to machine learn the pattern of Raman spectra by polymer categories(e.g. polyamide, polyethylene), and let it expect the type a designated material falls into.
In this specific model, 3 levels of neurons were used in order to optimize adequate complexity with ease of model creation and speed.

We acquired Raman spectra from Luscombe Lab. We acquired them as .txt files so that we can finally change them into image files that can be used with Tensorflow(or Keras?). We first plotted those text data and converted them into image files(.png).

However since the amount of data we could get was less than we expected, we talked to Jimin Qian with this issue, and we decided to do data augmentation.
We first converted images into a numpy array(img_to_array), expanded dimension(expand_dims), and created image data augmentation generator(ImageDataGenerator(zoom_range=[0.5,1.0])). We used os.scandir() function to iterate over data not yet augmented and got augmented data.

We then created image databse in order to load these image data into codes.

The augmented data was then separated 80/20 into training and validation data.
They were stored in either "trainingdata_Pictures" directory or "validationdata_Pictures".

Each train and validation set were then split into 5 categories: flourescent, nylon, polyamide, polyethylene, and unknown.

### Sturcture

```
|-Licence

|-README

|-model_train_and_validate/

  |-Post_Augmented_Raman_Pictures
  
  |-Pre_Augmented_Raman_Picture
  
  |-Raman_Data
  
  |-py_files
  
  |-test/
  
  |-preprocessing.py
    
  |-Augmentation.py
    
  |-pic_class.py
    
  |-TrainTestSplit.py
    
    |-test_Augmentation.py
    
    |-test_pic

File: 20180911 NBay_Control 4a_1.txt
3201.2	210.561
3193.47	281.64
3185.73	327.236
3177.98	238.664
3170.21	217.301
3162.42	204.362
3154.62	253.909
3146.81	240.946
3138.98	219.741
3131.13	273.1
3123.27	256.042
3115.39	313.239
3107.49	304.393
3099.58	324.318
3091.66	376.94
3083.72	314.858
3075.76	265.263
3067.79	289.174
3059.8	312.99
3051.8	288.028
3043.78	372.479
3035.74	436.389
3027.69	399.229
3019.62	374.287
3011.54	341.409
3003.44	400.858
2995.32	396.059
2987.19	495.084
2979.04	414.403
2970.88	528.9
2962.69	579.437
2954.5	550.553
2946.28	588.98
2938.05	639.086
2929.8	681.114
2921.54	730.828
2913.26	843.08
2904.96	868.781
2896.65	1015.45
2888.32	954.942
2879.97	851.884
2871.61	939.457
2863.23	1646.55
2854.83	866.081
2846.41	902.921
2837.98	781.722
2829.53	741.713
2821.07	801.58
2812.58	750.201
2804.08	832.719
2795.57	865.342
2787.03	806.523
2778.48	884.618
2769.91	909.346
2761.32	865.906
2752.72	962.26
2744.1	1001.73
2735.46	1041.03
2726.8	1080.17
2718.12	1025.57
2709.43	1060.83
2700.72	1088.49
2691.99	1138.35
2683.25	1154.59
2674.48	1144.82
2665.7	1234.91
2656.9	1228.69
2648.08	1288.77
2639.25	1260.41
2630.39	1283.49
2621.52	1332.09
2612.63	1402.4
2603.72	1399.51
2594.79	1451.19
2585.85	1346.58
2576.88	1347.42
2567.9	1575.98
2558.9	1554.7
2549.88	1544.29
2540.84	1670.42
2531.79	1634.7
2522.71	1627.75
2513.61	1745.76
2504.5	1774.21
2495.37	1827.41
2486.22	1883.93
2477.05	1957.91
2467.86	1918.52
2458.65	2016.78
2449.42	1991.47
2440.17	2103.19
2430.91	2088.3
2421.62	2094.43
2412.31	2281.97
2402.99	2308.54
2393.65	2282.87
2384.28	2402.92
2374.9	2494.78
2365.49	2441.21
2356.07	2611.82
2346.63	2654.48
2337.17	2642.05
2327.68	2588.56
2318.18	2764.21
2308.66	2812.95
2299.12	2895.49
2289.55	3001.44
2279.97	3035.76
2270.37	2911.02
2260.74	3012.84
2251.1	3090.64
2241.43	3215.13
2231.75	3221.73
2222.04	3198.18
2212.32	3428.42
2202.57	3461.12
2192.8	3633.27
2183.02	3632.19
2173.21	3611.22
2163.38	3811.63
2153.53	3793.62
2143.65	3864.47
2133.76	3859.51
2123.85	3933.14
2113.91	4225.39
2103.96	4063.09
2093.98	4200.82
2083.98	4227.54
2073.96	4370.76
2063.91	4364.62
2053.85	4474.62
2043.76	4500.42
2033.66	4805.55
2023.53	4708.66
2013.38	4800.87
2003.2	4927.76
1993.01	5114.59
1982.79	5068.59
1972.55	5193.99
1962.29	5306.16
1952.01	5439.92
1941.7	5513.2
1931.37	5551.55
1921.02	5614.79
1910.65	5746.58
1900.25	5755.96
1889.84	6023.92
1879.39	5830.45
1868.93	6155.96
1858.44	6483.11
1847.93	6252.72
1837.4	6516.5
1826.85	6600.69
1816.27	6620.02
1805.67	6991.39
1795.04	6985.24
1784.39	6927.24
1773.72	7094.58
1763.02	7595.06
1752.31	7269.42
1741.56	7392.45
1730.8	7421.42
1720.01	7525.43
1709.19	7716
1698.35	7785.85
1687.49	7909.14
1676.61	8061.66
1665.7	8216.42
1654.76	8432.81
1643.8	8233.39
1632.82	8708.81
1621.81	8539.05
1610.78	8711.38
1599.73	8891.69
1588.65	9059.42
1577.54	9033.39
1566.41	9310.78
1555.25	9266.73
1544.07	9501.58
1532.87	9413.7
1521.64	9592.12
1510.38	9683.14
1499.1	9779.44
1487.8	10018.8
1476.46	10406
1465.11	10382.7
1453.72	10670.2
1442.32	10535.2
1430.88	10571.1
1419.42	10938.2
1407.94	10888.1
1396.42	10866.3
1384.89	11770.3
1373.32	11836.4
1361.73	11705.9
1350.11	11886.2
1338.47	12007
1326.8	11857.4
1315.11	11924.8
1303.38	11673.3
1291.63	12135.8
1279.86	11774.6
1268.05	11813.8
1256.22	11877.4
1244.37	12091.2
1232.48	11907.8
1220.57	11946
1208.63	11752.7
1196.66	12083.9
1184.67	12148.2
1172.65	12468.7
1160.6	12903.4
1148.52	12946.3
1136.42	13050.6
1124.28	13804.5
1112.12	13553.8
1099.93	14079.1
1087.72	13523.1
1075.47	13009.3
1063.2	13233.1
1050.9	13125.9
1038.56	13174.4
1026.2	13201.6
1013.82	13341.2
1001.4	13276.2
988.952	13605.2
976.476	13596.9
963.971	13775.5
951.437	13463.6
938.874	13659.5
926.281	13733.3
913.659	13744.8
901.007	14097.5
888.325	14218
875.613	14258.7
862.872	14426.4
850.1	14420.5
837.298	14536.1
824.466	14610.6
811.604	14518.1
798.711	14705.4
785.788	14941.9
772.834	15142.1
759.849	15173.8
746.834	14993.1
733.787	15557.2
720.71	15267.1
707.601	15795.4
694.461	15846.7
681.29	15744.9
668.087	16061.4
654.853	16089.3
641.586	16068
628.289	16259
614.959	16419.8
601.597	16577.3
588.203	16510.8
574.777	16584.8
561.318	16916.4
547.827	17065.8
534.304	17118.3
520.748	17805.1
507.159	17518.4
493.537	17359.3
479.882	17129.5
466.194	17484.1
452.473	18056.9
438.718	18815.6
424.93	17964.7
411.109	17585.1
397.254	18032.1
383.365	19519.1
369.442	18496.9
355.485	18556.4
341.493	18515.7
327.468	18477.4
313.408	18115.9
299.314	18223.5
285.185	17967.4
271.021	17985.2
256.822	18165.1
242.588	17935.6
228.32	18016.6
214.016	18022.1
199.676	17841.8
185.301	17931
170.891	17882.1
156.445	18123.3
141.963	18206.1
127.445	18221.3
112.89	17988.7
100.547	12829.4

File: 20180911 NBay_Control 4c_1.txt
3201.2	122.125
3193.47	222.79
3185.73	239.134
3177.98	188.419
3170.21	259.09
3162.42	262.751
3154.62	303.858
3146.81	157.861
3138.98	236.325
3131.13	161.377
3123.27	198.226
3115.39	193.713
3107.49	176.877
3099.58	225.791
3091.66	159.79
3083.72	265.789
3075.76	212.21
3067.79	191.425
3059.8	215.435
3051.8	219.064
3043.78	255.067
3035.74	278.804
3027.69	302.446
3019.62	245.5
3011.54	224.928
3003.44	332.712
2995.32	216.032
2987.19	251.535
2979.04	298.849
2970.88	262.462
2962.69	396.875
2954.5	348.551
2946.28	375.524
2938.05	390.553
2929.8	397.644
2921.54	506.864
2913.26	454.871
2904.96	414.824
2896.65	488.196
2888.32	405.363
2879.97	455.116
2871.61	485.257
2863.23	937.566
2854.83	367.311
2846.41	382.005
2837.98	450.549
2829.53	395.837
2821.07	490.92
2812.58	432.514
2804.08	381.981
2795.57	453.637
2787.03	464.131
2778.48	429.021
2769.91	503.929
2761.32	510.469
2752.72	501.885
2744.1	500.865
2735.46	518.637
2726.8	491.327
2718.12	565.185
2709.43	511.739
2700.72	495.784
2691.99	505.932
2683.25	527.174
2674.48	570.555
2665.7	595.27
2656.9	682.605
2648.08	548.648
2639.25	775.352
2630.39	663.748
2621.52	673.365
2612.63	712.154
2603.72	615.932
2594.79	709.229
2585.85	678.732
2576.88	699.067
2567.9	762.689
2558.9	714.223
2549.88	723.548
2540.84	779.53
2531.79	824.522
2522.71	822.816
2513.61	853.244
2504.5	879.977
2495.37	853.266
2486.22	947.289
2477.05	973.647
2467.86	1003.42
2458.65	973.129
2449.42	1034.44
2440.17	26140.7
2430.91	1040.64
2421.62	1160.85
2412.31	1085.16
2402.99	1100.3
2393.65	1139.7
2384.28	1175.46
2374.9	1173
2365.49	1201.61
2356.07	1240.44
2346.63	1248.16
2337.17	1272.99
2327.68	1359.34
2318.18	1329.15
2308.66	1404.77
2299.12	1429.03
2289.55	1405.65
2279.97	1416.24
2270.37	1440.3
2260.74	1568.84
2251.1	1595.82
2241.43	1538.69
2231.75	1612.54
2222.04	1679.38
2212.32	1649.11
2202.57	1622.3
2192.8	1708.6
2183.02	1734.83
2173.21	1774.17
2163.38	1790.21
2153.53	1881.98
2143.65	1841.79
2133.76	1890.37
2123.85	1778.26
2113.91	1911.72
2103.96	2086.98
2093.98	1867.75
2083.98	2029.35
2073.96	2115.72
2063.91	2069.15
2053.85	2155.04
2043.76	2275.96
2033.66	2251.8
2023.53	2330.29
2013.38	2338.07
2003.2	2384.09
1993.01	2442.65
1982.79	2440.55
1972.55	2543.09
1962.29	2572.4
1952.01	2712.07
1941.7	2624.28
1931.37	2744.34
1921.02	2807.39
1910.65	2782.52
1900.25	2932.63
1889.84	2997.93
1879.39	3047.38
1868.93	2988
1858.44	3207.5
1847.93	3200.5
1837.4	3175.02
1826.85	3263.43
1816.27	3369.85
1805.67	3386.98
1795.04	3495.68
1784.39	3564.24
1773.72	3595.97
1763.02	3870.38
1752.31	3665
1741.56	3850.36
1730.8	3905.22
1720.01	3731.12
1709.19	3924.05
1698.35	4062.18
1687.49	3966.53
1676.61	4232.15
1665.7	4184.1
1654.76	4272.82
1643.8	4352.23
1632.82	4389.88
1621.81	4465.67
1610.78	4464.58
1599.73	4607.35
1588.65	4594.17
1577.54	4794.42
1566.41	4734.15
1555.25	4694.48
1544.07	4753.69
1532.87	4853.17
1521.64	5079.37
1510.38	4825.7
1499.1	4904.11
1487.8	5033.82
1476.46	5102.74
1465.11	5219.92
1453.72	5313.71
1442.32	5327.36
1430.88	5428.94
1419.42	5467.7
1407.94	5579.73
1396.42	5646.09
1384.89	6010.39
1373.32	5965.91
1361.73	6002.82
1350.11	6053.49
1338.47	6229.38
1326.8	6092.82
1315.11	6048.44
1303.38	6037.45
1291.63	6098.31
1279.86	6048.58
1268.05	6051.29
1256.22	5916.73
1244.37	5941.54
1232.48	5884.25
1220.57	6154.23
1208.63	5879.08
1196.66	5987.69
1184.67	5900.86
1172.65	6092.56
1160.6	6215.96
1148.52	6325.31
1136.42	6439.48
1124.28	7029.37
1112.12	6679.44
1099.93	7281.94
1087.72	6781.47
1075.47	6627.92
1063.2	6588.76
1050.9	6821.55
1038.56	6758.33
1026.2	6548.26
1013.82	6467.52
1001.4	6436.79
988.952	6693.07
976.476	6557.76
963.971	6734.58
951.437	6648.91
938.874	6739.32
926.281	6782.84
913.659	6761.81
901.007	7064.14
888.325	6842.77
875.613	7000.36
862.872	7126.59
850.1	7186.08
837.298	7141.26
824.466	7038.4
811.604	7296.91
798.711	7319.96
785.788	7300.14
772.834	7440.75
759.849	7538.13
746.834	7607.55
733.787	7708.94
720.71	7576.43
707.601	7771.39
694.461	7740.54
681.29	7929.14
668.087	8099.56
654.853	8060.6
641.586	8002.18
628.289	8175.9
614.959	8122.23
601.597	8355.44
588.203	8313.58
574.777	8308.12
561.318	8379.81
547.827	8583.44
534.304	8466.74
520.748	8721.73
507.159	8636.18
493.537	8608.16
479.882	8608.74
466.194	8865.39
452.473	9080.51
438.718	9214.26
424.93	9116.54
411.109	8892.39
397.254	9037.12
383.365	9784.09
369.442	9345.21
355.485	9427.08
341.493	9322.84
327.468	9512.99
313.408	9395.04
299.314	9028.83
285.185	9199.69
271.021	9142.73
256.822	9117.97
242.588	9211.86
228.32	9150.5
214.016	9150.64
199.676	9297.85
185.301	9055.82
170.891	9193.38
156.445	9197.59
141.963	9192.73
127.445	9145.33
112.89	8926.34
100.547	6833.14

File: 20180911 NBay_Control 4c_b1.txt
3201.2	231.617
3193.47	147.126
3185.73	255.916
3177.98	146.548
3170.21	179.691
3162.42	216.874
3154.62	145.685
3146.81	178.632
3138.98	157.55
3131.13	198.618
3123.27	169.318
3115.39	164.863
3107.49	160.423
3099.58	82.1058
3091.66	184.373
3083.72	163.563
3075.76	93.8622
3067.79	134.405
3059.8	174.787
3051.8	227.177
3043.78	174.093
3035.74	121.219
3027.69	157.272
3019.62	185.131
3011.54	168.696
3003.44	104.223
2995.32	188.028
2987.19	195.638
2979.04	179.309
2970.88	258.485
2962.69	230.187
2954.5	194.08
2946.28	205.55
2938.05	169.634
2929.8	157.483
2921.54	200.388
2913.26	211.75
2904.96	187.845
2896.65	292.918
2888.32	218.272
2879.97	206.164
2871.61	147.518
2863.23	526.896
2854.83	170.123
2846.41	181.356
2837.98	204.095
2829.53	149.88
2821.07	176.424
2812.58	187.55
2804.08	183.351
2795.57	133.423
2787.03	175
2778.48	159.459
2769.91	166.713
2761.32	143.688
2752.72	192.452
2744.1	128.041
2735.46	214.22
2726.8	187.529
2718.12	273.235
2709.43	183.031
2700.72	182.657
2691.99	167.404
2683.25	163.35
2674.48	211.18
2665.7	192.261
2656.9	158.66
2648.08	184.11
2639.25	194.757
2630.39	179.689
2621.52	179.32
2612.63	222.776
2603.72	284.276
2594.79	214.587
2585.85	185.109
2576.88	159.373
2567.9	191.576
2558.9	198.395
2549.88	197.986
2540.84	208.354
2531.79	218.678
2522.71	182.451
2513.61	232.054
2504.5	213.76
2495.37	191.985
2486.22	212.874
2477.05	191.189
2467.86	247.322
2458.65	271.489
2449.42	221.665
2440.17	231.737
2430.91	238.262
2421.62	206.296
2412.31	275.651
2402.99	236.774
2393.65	229.329
2384.28	256.589
2374.9	238.751
2365.49	314.215
2356.07	279.1
2346.63	278.515
2337.17	301.948
2327.68	229.41
2318.18	198.176
2308.66	320.506
2299.12	275.599
2289.55	346.32
2279.97	223.617
2270.37	304.288
2260.74	290.15
2251.1	272.704
2241.43	319.161
2231.75	284.961
2222.04	354.61
2212.32	297.107
2202.57	319.795
2192.8	312.468
2183.02	268.682
2173.21	317.761
2163.38	303.873
2153.53	296.634
2143.65	328.891
2133.76	295.371
2123.85	340.588
2113.91	323.521
2103.96	329.351
2093.98	403.487
2083.98	392.882
2073.96	405
2063.91	329.771
2053.85	406.49
2043.76	360.549
2033.66	385.472
2023.53	407.08
2013.38	406.203
2003.2	437.243
1993.01	353.499
1982.79	476.67
1972.55	453.444
1962.29	512.581
1952.01	492.529
1941.7	469.409
1931.37	502.971
1921.02	483.06
1910.65	519.571
1900.25	584.028
1889.84	557.828
1879.39	544.176
1868.93	598.841
1858.44	653.265
1847.93	645.661
1837.4	610.344
1826.85	692.057
1816.27	702.82
1805.67	747.218
1795.04	754.748
1784.39	740.898
1773.72	678.427
1763.02	865.144
1752.31	796.607
1741.56	779.744
1730.8	811.199
1720.01	767.287
1709.19	870.677
1698.35	865.76
1687.49	995.368
1676.61	1008.08
1665.7	1071.32
1654.76	1018.47
1643.8	1099.17
1632.82	1043.52
1621.81	1035.3
1610.78	980.03
1599.73	980.787
1588.65	949.305
1577.54	935.497
1566.41	1070.51
1555.25	1056.48
1544.07	1048.31
1532.87	1124.2
1521.64	1075.43
1510.38	1101.86
1499.1	1082.13
1487.8	1119.9
1476.46	1166.09
1465.11	1146.32
1453.72	1163.71
1442.32	1203.78
1430.88	1323.16
1419.42	1371.17
1407.94	1243.71
1396.42	1331.15
1384.89	1525.11
1373.32	1608.69
1361.73	1635.86
1350.11	1514.77
1338.47	1575.47
1326.8	1538.51
1315.11	1540.56
1303.38	1448.43
1291.63	2069.61
1279.86	2142.09
1268.05	1265.27
1256.22	1122.42
1244.37	1040.45
1232.48	1018.95
1220.57	1016.62
1208.63	1000.7
1196.66	903.444
1184.67	933.852
1172.65	988.42
1160.6	1040.04
1148.52	1120.98
1136.42	1131.8
1124.28	1198.77
1112.12	1043.83
1099.93	1089.36
1087.72	999.151
1075.47	983.584
1063.2	928.405
1050.9	926.253
1038.56	900.408
1026.2	864.171
1013.82	833.336
1001.4	883.686
988.952	839.894
976.476	798.901
963.971	763.286
951.437	712.291
938.874	723.546
926.281	814.663
913.659	884.771
901.007	900.659
888.325	954.864
875.613	1136.51
862.872	1358.05
850.1	1685.31
837.298	1176.68
824.466	925.972
811.604	790.014
798.711	689.944
785.788	791.309
772.834	746.831
759.849	847.571
746.834	790.687
733.787	813.693
720.71	916.023
707.601	1027.77
694.461	961.082
681.29	985.904
668.087	988.471
654.853	910.067
641.586	988.648
628.289	1047.32
614.959	1052.11
601.597	1032.59
588.203	1037.38
574.777	938.17
561.318	1186.78
547.827	1068.42
534.304	991.427
520.748	996.221
507.159	965.149
493.537	927.07
479.882	960.49
466.194	1005.6
452.473	1074.14
438.718	1026.69
424.93	1160.76
411.109	1167.33
397.254	1258.21
383.365	1322.93
369.442	1193.8
355.485	1218.8
341.493	1164.78
327.468	1198.96
313.408	1232.97
299.314	1292.14
285.185	1238.42
271.021	1366.02
256.822	1463.27
242.588	1626.16
228.32	1815.54
214.016	1854.18
199.676	1897.15
185.301	1826.97
170.891	1795.42
156.445	1961.76
141.963	2524.02
127.445	3128.2
112.89	4101.83
100.547	3881.76

File: 20180911 NBay_Control 4e_1.txt
3201.2	345.32
3193.47	306.862
3185.73	344.018
3177.98	401.961
3170.21	426.244
3162.42	350.334
3154.62	391.269
3146.81	415.424
3138.98	418.751
3131.13	384.823
3123.27	400.582
3115.39	408.035
3107.49	399.002
3099.58	422.845
3091.66	479.369
3083.72	552.024
3075.76	526.445
3067.79	517.256
3059.8	552.813
3051.8	515.206
3043.78	457.501
3035.74	448.511
3027.69	584.729
3019.62	563.443
3011.54	602.487
3003.44	657.407
2995.32	696.103
2987.19	762.589
2979.04	761.068
2970.88	890.779
2962.69	833.437
2954.5	1010.01
2946.28	1083.09
2938.05	1337.35
2929.8	1220.49
2921.54	1221.98
2913.26	1297.95
2904.96	1412.75
2896.65	1624.72
2888.32	1379.79
2879.97	1408.14
2871.61	1401.42
2863.23	2460.14
2854.83	3924.43
2846.41	4028.41
2837.98	3515.83
2829.53	3927.62
2821.07	15506.2
2812.58	1316.68
2804.08	1378.95
2795.57	1334.23
2787.03	1278.26
2778.48	1309.84
2769.91	1530.73
2761.32	1523.84
2752.72	1622.63
2744.1	1683.36
2735.46	1597.25
2726.8	1691.52
2718.12	1725.5
2709.43	1875.13
2700.72	1845.21
2691.99	1837.73
2683.25	1889.66
2674.48	1893.21
2665.7	2011.35
2656.9	2066.27
2648.08	2157.77
2639.25	2083.53
2630.39	2266.28
2621.52	2312.86
2612.63	2370.2
2603.72	2485.59
2594.79	2378.64
2585.85	2515.3
2576.88	2463.03
2567.9	2609.77
2558.9	2662.1
2549.88	2764.6
2540.84	2755.3
2531.79	2943.19
2522.71	2919.21
2513.61	3188.06
2504.5	3071.01
2495.37	3217.52
2486.22	3175.37
2477.05	3384.75
2467.86	3458.98
2458.65	3465.89
2449.42	3638.12
2440.17	3637.57
2430.91	3615.98
2421.62	3744.8
2412.31	3782.35
2402.99	3913.73
2393.65	3909.02
2384.28	4147.03
2374.9	4093.37
2365.49	4312.69
2356.07	4441.48
2346.63	4435.6
2337.17	4621.87
2327.68	4855.27
2318.18	4814.31
2308.66	5029.22
2299.12	5113.9
2289.55	4987.68
2279.97	5017.82
2270.37	5230.38
2260.74	5259.82
2251.1	5521.4
2241.43	5724.74
2231.75	5608.7
2222.04	5794.19
2212.32	5895.41
2202.57	6069.45
2192.8	6222.77
2183.02	6202.91
2173.21	6368.47
2163.38	6569.61
2153.53	6634.72
2143.65	6696.22
2133.76	6639.27
2123.85	6913.29
2113.91	7065.18
2103.96	7297.91
2093.98	7269.28
2083.98	7305.66
2073.96	7662.61
2063.91	7833.69
2053.85	7703.96
2043.76	7896.66
2033.66	8001.75
2023.53	7872.34
2013.38	8283.98
2003.2	8661.89
1993.01	8757.85
1982.79	8958.22
1972.55	9008.63
1962.29	9144.19
1952.01	9219.13
1941.7	9460.65
1931.37	9587.89
1921.02	9874.5
1910.65	9871.85
1900.25	10019.1
1889.84	10047.1
1879.39	10442
1868.93	10546.4
1858.44	10963.1
1847.93	11096.7
1837.4	11312.9
1826.85	11392.8
1816.27	11687.1
1805.67	11689.1
1795.04	11712.3
1784.39	11845.2
1773.72	12153.9
1763.02	12846.6
1752.31	12603.4
1741.56	12923.2
1730.8	12994.3
1720.01	13083
1709.19	13171.2
1698.35	13277
1687.49	13806.6
1676.61	13928.2
1665.7	14293.2
1654.76	14297.2
1643.8	14529.2
1632.82	14644.8
1621.81	14712.5
1610.78	14921.2
1599.73	15299.1
1588.65	15411.6
1577.54	15488.3
1566.41	15780.5
1555.25	15803.5
1544.07	16142.8
1532.87	16973.1
1521.64	16805
1510.38	16533.7
1499.1	16798.9
1487.8	17280.9
1476.46	17826.6
1465.11	17798
1453.72	18145.9
1442.32	18233.1
1430.88	18674.8
1419.42	18663.8
1407.94	18590.6
1396.42	19067.6
1384.89	20211.9
1373.32	20009
1361.73	20159.7
1350.11	20021.8
1338.47	20812.9
1326.8	20289.9
1315.11	19838.6
1303.38	20048.2
1291.63	20356.3
1279.86	20712.4
1268.05	20115
1256.22	20620.7
1244.37	20699.6
1232.48	20903.6
1220.57	20744
1208.63	21044.5
1196.66	20944.7
1184.67	20866.9
1172.65	21229.4
1160.6	22234.1
1148.52	22857.7
1136.42	22493.9
1124.28	23774.6
1112.12	23217.9
1099.93	23792.8
1087.72	23248.9
1075.47	22879.6
1063.2	23146.6
1050.9	23188
1038.56	23284.2
1026.2	23266.9
1013.82	23081.8
1001.4	23268.6
988.952	23446.6
976.476	23652.2
963.971	23986.4
951.437	23886.4
938.874	24047.6
926.281	24274.9
913.659	24362.1
901.007	24525.6
888.325	24716.4
875.613	25008.2
862.872	25290.9
850.1	25612.6
837.298	25270.8
824.466	25595.8
811.604	25490
798.711	25815
785.788	26085.6
772.834	26322
759.849	26659.7
746.834	26786.1
733.787	27008.7
720.71	27123.2
707.601	27801.7
694.461	28113.5
681.29	28357.1
668.087	28198.5
654.853	28040.4
641.586	28450.6
628.289	28658.4
614.959	28955.1
601.597	29150.5
588.203	29281.7
574.777	28940.6
561.318	29216
547.827	29480.2
534.304	29622.8
520.748	30583.5
507.159	29255.5
493.537	29454.1
479.882	29713.4
466.194	29862
452.473	30487.6
438.718	31556
424.93	30415.2
411.109	30146.3
397.254	30408
383.365	32432.9
369.442	30721.7
355.485	30581.6
341.493	30919.9
327.468	30798
313.408	30584.1
299.314	30313.4
285.185	29811.7
271.021	30176.3
256.822	30010.7
242.588	30178.6
228.32	29881.3
214.016	29998.3
199.676	29897.1
185.301	29812
170.891	29720.2
156.445	29318.6
141.963	29907.2
127.445	29558
112.89	29805.8
100.547	20868.9