Folder: Spicy-Raman_New/Spicy-Raman/model_train_and_validate/Raman_Data/cellulose (part 3)

File: NBay_Control 1_1.txt
3201.17	29.4783
3193.44	33.6285
3185.7	54.539
3177.95	41.8706
3170.18	100.292
3162.39	41.7061
3154.59	12.4872
3146.78	70.6215
3138.94	70.4824
3131.1	37.2406
3123.23	99.1124
3115.36	45.3369
3107.46	65.8142
3099.55	65.6842
3091.63	77.8457
3083.69	73.6026
3075.73	53.0522
3067.76	44.8013
3059.77	73.1659
3051.77	60.8506
3043.75	56.6812
3035.71	56.5686
3027.66	56.4561
3019.59	52.3193
3011.51	88.3641
3003.41	92.1967
2995.29	84.0118
2987.16	91.8294
2979.01	51.8
2970.84	83.5099
2962.66	83.343
2954.46	99.0195
2946.25	75.1043
2938.02	67.0641
2929.77	133.859
2921.51	121.804
2913.23	105.874
2904.93	117.402
2896.62	160.127
2888.29	124.726
2879.94	147.814
2871.57	128.107
2863.19	294.44
2854.8	115.992
2846.38	96.4651
2837.95	115.525
2829.5	126.82
2821.03	115.058
2812.55	118.653
2804.05	126.053
2795.53	121.986
2787	144.564
2778.44	125.288
2769.88	136.401
2761.29	90.7493
2752.68	132.074
2744.06	150.635
2735.42	176.636
2726.76	183.777
2718.09	149.717
2709.4	130.735
2700.69	160.29
2691.96	171.123
2683.21	126.224
2674.45	166.719
2665.67	166.378
2656.87	184.487
2648.05	184.109
2639.21	187.406
2630.36	128.348
2621.49	212.255
2612.6	178.95
2603.69	156.715
2594.76	181.852
2585.81	203.255
2576.85	228.191
2567.87	231.335
2558.87	230.858
2549.85	219.582
2540.81	219.129
2531.75	272.449
2522.67	279.04
2513.58	221.342
2504.46	238.696
2495.33	238.202
2486.18	258.995
2477.01	240.754
2467.82	293.251
2458.61	278.538
2449.38	256.848
2440.14	270.358
2430.87	290.817
2421.58	272.728
2412.28	296.584
2402.95	285.519
2393.61	326.618
2384.24	298.196
2374.86	332.173
2365.46	314.213
2356.03	337.674
2346.59	309.458
2337.13	329.396
2327.65	352.672
2318.14	307.512
2308.62	375.057
2299.08	343.646
2289.52	366.688
2279.93	362.527
2270.33	385.429
2260.71	398.11
2251.06	346.768
2241.4	409.867
2231.71	445.876
2222.01	388.061
2212.28	437.312
2202.53	466.365
2192.77	412.189
2182.98	474.337
2173.17	410.438
2163.34	475.624
2153.49	477.907
2143.62	480.177
2133.72	479.153
2123.81	481.405
2113.87	519.591
2103.92	489.132
2093.94	471.816
2083.94	529.25
2073.92	554.036
2063.87	517.284
2053.81	529.078
2043.72	573.01
2033.62	539.656
2023.49	625.038
2013.34	582.113
2003.16	564.901
1992.97	614.637
1982.75	670.51
1972.51	643.695
1962.25	664.451
1951.97	675.643
1941.66	730.886
1931.33	657.001
1920.98	690.08
1910.61	701.102
1900.21	696.456
1889.8	741.687
1879.35	718.306
1868.89	667.097
1858.4	755.428
1847.89	772.316
1837.36	807.62
1826.81	778.173
1816.23	813.301
1805.62	829.895
1795	800.576
1784.35	823.213
1773.68	873.125
1762.98	880.315
1752.26	899.583
1741.52	894.582
1730.75	829.286
1719.96	908.7
1709.15	903.695
1698.31	979.588
1687.45	992.37
1676.56	984.212
1665.65	993.938
1654.72	994.706
1643.76	1093.23
1632.78	1049.42
1621.77	1106.09
1610.74	1186.03
1599.68	1151.09
1588.6	1151.46
1577.5	1049.5
1566.37	1085.08
1555.21	1129.23
1544.03	1100.57
1532.82	1106.8
1521.59	1156.36
1510.34	1075.89
1499.06	1096.51
1487.75	1119.89
1476.42	1148.89
1465.06	1152.03
1453.68	1160.85
1442.27	1183.85
1430.84	1212.42
1419.38	1223.85
1407.89	1206.95
1396.38	1204.23
1384.84	1356.26
1373.28	1322.31
1361.69	1313.72
1350.07	1335.89
1338.43	1397
1326.76	1338.18
1315.06	1210.23
1303.34	1265.64
1291.59	1237.89
1279.81	1276.42
1268.01	1235
1256.18	1265.11
1244.32	1237.58
1232.44	1281.19
1220.52	1245.55
1208.58	1226.38
1196.62	1196.44
1184.62	1201.82
1172.6	1212.56
1160.55	1247.49
1148.48	1368.28
1136.37	1287.35
1124.24	1271
1112.08	1262.73
1099.89	1337.05
1087.67	1280.82
1075.42	1277.85
1063.15	1240.51
1050.85	1266.66
1038.52	1287.41
1026.16	1174.11
1013.77	1226.41
1001.35	1205.25
988.903	1205.05
976.427	1204.85
963.923	1217.61
951.388	1245.85
938.825	1253.27
926.232	1247.76
913.61	1244.84
900.957	1329.17
888.276	1328.61
875.564	1271.85
862.822	1312.18
850.05	1273.5
837.249	1222.32
824.417	1297.87
811.554	1297.33
798.661	1279.16
785.738	1316.32
772.784	1318.22
759.799	1292.6
746.783	1346.9
733.737	1318.82
720.659	1315.69
707.55	1349.7
694.41	1284.73
681.239	1318.64
668.036	1354.83
654.801	1265.74
641.535	1355.71
628.237	1386.64
614.907	1358.97
601.545	1401.87
588.151	1415.48
574.725	1383.06
561.266	1435.22
547.775	1364.39
534.251	1344.3
520.695	1408.11
507.106	1364.1
493.484	1408.47
479.829	1386.04
466.141	1434.86
452.42	1405.36
438.665	1442.07
424.877	1438.57
411.055	1475.01
397.2	1464.39
383.311	1516.92
369.387	1412.96
355.43	1507.2
341.439	1394.47
327.413	1437.35
313.353	1526.19
299.259	1386.56
285.13	1452.09
270.966	1409.56
256.767	1470.11
242.533	1420.88
228.264	1417.38
213.96	1468.35
199.621	1437.56
185.246	1427.24
170.835	1455.25
156.389	1485.35
141.906	1584.78
127.388	1556.26
112.834	1630.46
100.49	1317.65

File: NBay_Control 1_2.txt
3201.17	46.323
3193.44	16.8142
3185.7	46.1483
3177.95	33.4965
3170.18	25.073
3162.39	4.17061
3154.59	37.4616
3146.78	49.8505
3138.94	37.3142
3131.1	45.5163
3123.23	28.9078
3115.36	49.4584
3107.46	49.3607
3099.55	53.3684
3091.63	57.36
3083.69	53.1574
3075.73	36.7284
3067.76	52.947
3059.77	77.2307
3051.77	52.7372
3043.75	44.5352
3035.71	72.731
3027.66	60.4887
3019.59	32.1965
3011.51	64.2648
3003.41	56.1197
2995.29	36.0051
2987.16	83.8443
2979.01	55.7846
2970.84	43.7433
2962.66	59.5307
2954.46	79.2156
2946.25	35.5757
2938.02	55.2292
2929.77	98.4261
2921.51	43.2207
2913.23	50.9765
2904.93	66.5278
2896.62	66.3942
2888.29	89.6469
2879.94	77.7971
2871.57	77.6405
2863.19	216.956
2854.8	92.7936
2846.38	57.8791
2837.95	84.718
2829.5	73.0178
2821.03	95.882
2812.55	65.0679
2804.05	80.2154
2795.53	76.241
2787	95.1082
2778.44	102.509
2769.88	94.7228
2761.29	71.8432
2752.68	79.2443
2744.06	86.615
2735.42	93.9552
2726.76	105.016
2718.09	86.0871
2709.4	123.265
2700.69	111.83
2691.96	93.0016
2683.21	103.949
2674.45	66.6878
2665.67	110.919
2656.87	81.1741
2648.05	95.7365
2639.21	124.937
2630.36	106.346
2621.49	164.68
2612.6	105.909
2603.69	72.8908
2594.76	149.119
2585.81	108.887
2576.85	141.261
2567.87	122.897
2558.87	115.429
2549.85	151.188
2540.81	114.953
2531.75	114.715
2522.67	132.365
2513.58	189.211
2504.46	163.881
2495.33	110.213
2486.18	141.915
2477.01	155.782
2467.82	141.326
2458.61	165.713
2449.38	182.96
2440.14	154.49
2430.87	175.191
2421.58	185.315
2412.28	198.886
2402.95	146.241
2393.61	180.682
2384.24	187.239
2374.86	214.528
2365.46	203.72
2356.03	189.511
2346.59	213.182
2337.13	219.597
2327.65	229.408
2318.14	222.092
2308.62	190.938
2299.08	244.975
2289.52	217.297
2279.93	227.003
2270.33	246.81
2260.71	253.036
2251.06	249.135
2241.4	215.012
2231.71	261.491
2222.01	254.247
2212.28	270.399
2202.53	286.481
2192.77	259.28
2182.98	285.265
2173.17	278.039
2163.34	267.538
2153.49	306.519
2143.62	276.266
2133.72	282.241
2123.81	288.188
2113.87	310.447
2103.92	319.566
2093.94	357.929
2083.94	334.434
2073.92	336.957
2063.87	336.235
2053.81	361.322
2043.72	338.011
2033.62	337.285
2023.49	330.148
2013.34	425.39
2003.16	386.175
1992.97	347.127
1982.75	394.044
1972.51	361.484
1962.25	411.327
1951.97	404.123
1941.66	381.195
1931.33	408.661
1920.98	483.056
1910.61	422.539
1900.21	446.606
1889.8	464.333
1879.35	438.446
1868.89	443.697
1858.4	455.114
1847.89	500.461
1837.36	477.79
1826.81	439.837
1816.23	506.395
1805.62	480.788
1795	488.902
1784.35	503.075
1773.68	514.14
1762.98	683.003
1752.26	536.115
1741.52	531.914
1730.75	512.649
1719.96	532.583
1709.15	576.443
1698.31	536.227
1687.45	585.857
1676.56	545.79
1665.65	592.197
1654.72	614.64
1643.76	601.427
1632.78	688.777
1621.77	640.055
1610.74	685.721
1599.68	704.751
1588.6	665.094
1577.5	678.23
1566.37	670.884
1555.21	611.18
1544.03	659.181
1532.82	657.708
1521.59	673.582
1510.34	620.154
1499.06	664.812
1487.75	628.863
1476.42	690.483
1465.06	691.79
1453.68	713.052
1442.27	751.289
1430.84	718.363
1419.38	747.906
1407.89	743.392
1396.38	803.758
1384.84	759.733
1373.28	786.089
1361.69	829.127
1350.07	785.326
1338.43	814.218
1326.76	812.369
1315.06	777.214
1303.34	841.913
1291.59	776.444
1279.81	799.486
1268.01	764.656
1256.18	757.422
1244.32	722.836
1232.44	693.865
1220.52	771.317
1208.58	783.146
1196.62	762.359
1184.62	733.541
1172.6	712.952
1160.55	746.34
1148.48	779.569
1136.37	777.773
1124.24	789.359
1112.08	771.519
1099.89	807.026
1087.67	797.188
1075.42	763.53
1063.15	780.276
1050.85	746.801
1038.52	755.599
1026.16	722.325
1013.77	762.574
1001.35	786.944
988.903	808.586
976.427	736.44
963.923	784.049
951.388	769.267
938.825	757.133
926.232	775.985
913.61	751.02
900.957	772.353
888.276	783.34
875.564	771.284
862.822	817.882
850.05	734.615
837.249	788.676
824.417	758.987
811.554	782.435
798.661	818.357
785.738	786.277
772.784	844.563
759.799	790.059
746.783	735.806
733.737	813.686
720.659	851.472
707.55	819.728
694.41	778.247
681.239	783.787
668.036	831.095
654.801	807.034
641.535	802.658
628.237	834.916
614.907	813.433
601.545	833.35
588.151	831.35
574.725	904.31
561.266	844.245
547.775	866.277
534.251	880.994
520.695	840.554
507.106	862.415
493.484	817.434
479.829	846.364
466.141	849.059
452.42	856.465
438.665	856.748
424.877	866.44
411.055	857.288
397.2	864.575
383.311	930.252
369.387	832.388
355.43	930.371
341.439	897.936
327.413	909.628
313.353	861.223
299.259	898.268
285.13	875.387
270.966	845.734
256.767	834.511
242.533	850.703
228.264	855.434
213.96	878.289
199.621	860.275
185.246	855.892
170.835	828.995
156.389	865.145
141.906	905.591
127.388	885.456
112.834	903.332
100.49	730.048

File: NBay_Control 3_1.txt
3201.17	1195.98
3193.44	1261.07
3185.7	1271.18
3177.95	1289.62
3170.18	1483.49
3162.39	1317.91
3154.59	1319.48
3146.78	1557.83
3138.94	1388.92
3131.1	1539.28
3123.23	1556.89
3115.36	1500.24
3107.46	1620.68
3099.55	1740.63
3091.63	1700.31
3083.69	1844.15
3075.73	1897.63
3067.76	1950.89
3059.77	2162.46
3051.77	2060.81
3043.75	2202.47
3035.71	2278.91
3027.66	2230.02
3019.59	2382.54
3011.51	2297.47
3003.41	2561.46
2995.29	2480.35
2987.16	2627.12
2979.01	2693.6
2970.84	2938.75
2962.66	2920.98
2954.46	2990.39
2946.25	3079.28
2938.02	3140.18
2929.77	3295.3
2921.51	3312.27
2913.23	3435.03
2904.93	3385.09
2896.62	3475.93
2888.29	3652.14
2879.94	3839.28
2871.57	3862.61
2863.19	4184.14
2854.8	4082.92
2846.38	4190.45
2837.95	4266.71
2829.5	4427.19
2821.03	4372.22
2812.55	4742.3
2804.05	4893.14
2795.53	4951.85
2787	5063.56
2778.44	5387.4
2769.88	5205.97
2761.29	5369.33
2752.68	5403.71
2744.06	5611.15
2735.42	5787.64
2726.76	5985.89
2718.09	5966.21
2709.4	6178.17
2700.69	6471.24
2691.96	6413.39
2683.21	6678.72
2674.45	6854.02
2665.67	6880.67
2656.87	7290.91
2648.05	7150.78
2639.21	7466.84
2630.36	7543.2
2621.49	7736.31
2612.6	7884.76
2603.69	7926.87
2594.76	8176.07
2585.81	8289.91
2576.85	8327.16
2567.87	8490.73
2558.87	8487.64
2549.85	8783.3
2540.81	9106.42
2531.75	9144.95
2522.67	9337.1
2513.58	9439.15
2504.46	9640.48
2495.33	9808.93
2486.18	10154
2477.01	10079.8
2467.82	10239.1
2458.61	10443.4
2449.38	10573
2440.14	10610.7
2430.87	10889.9
2421.58	11056
2412.28	11301.6
2402.95	11319.8
2393.61	11890.3
2384.24	11473.6
2374.86	11906.3
2365.46	12212.9
2356.03	12173.5
2346.59	12392.1
2337.13	12259.7
2327.65	12679.1
2318.14	12959.9
2308.62	13082.7
2299.08	13051.7
2289.52	13411.3
2279.93	13464.3
2270.33	13794.3
2260.71	13832.6
2251.06	14113.1
2241.4	14063.1
2231.71	14247.9
2222.01	14492.1
2212.28	14828.5
2202.53	14873.7
2192.77	15068.2
2182.98	15122.4
2173.17	15686
2163.34	15434.6
2153.49	15747.8
2143.62	16155
2133.72	15913.8
2123.81	16154.9
2113.87	16689
2103.92	16552.2
2093.94	16666.5
2083.94	16890.5
2073.92	17188.1
2063.87	17135
2053.81	17101.5
2043.72	17463.9
2033.62	17509.9
2023.49	18023.5
2013.34	18371.7
2003.16	18405.6
1992.97	18534.7
1982.75	18685.3
1972.51	19088.9
1962.25	19060.3
1951.97	19110.6
1941.66	19478.8
1931.33	19675.5
1920.98	19783.3
1910.61	19972
1900.21	20206.6
1889.8	20187.6
1879.35	20177.9
1868.89	20717.2
1858.4	21334.6
1847.89	21328.3
1837.36	21297.1
1826.81	21582.8
1816.23	22032.8
1805.62	22137.7
1795	21945.6
1784.35	22306
1773.68	22540
1762.98	22894.3
1752.26	22756.1
1741.52	23059.7
1730.75	23114.5
1719.96	23626.2
1709.15	23985.4
1698.31	24384.9
1687.45	24399.8
1676.56	25064.6
1665.65	25574.6
1654.72	25901
1643.76	26403.5
1632.78	27187.5
1621.77	28014.9
1610.74	28732.6
1599.68	29567.3
1588.6	29847.2
1577.5	30400.5
1566.37	29979.8
1555.21	30230.1
1544.03	30403.6
1532.82	29996.7
1521.59	29952.7
1510.34	30433.7
1499.06	30270.5
1487.75	30547.2
1476.42	30613.3
1465.06	30876.1
1453.68	31043.4
1442.27	31753.3
1430.84	31633.5
1419.38	32123.1
1407.89	32384.2
1396.38	32720
1384.84	33124.4
1373.28	33596.9
1361.69	34229.5
1350.07	34900.9
1338.43	35089.4
1326.76	35427.1
1315.06	35790.7
1303.34	35377
1291.59	34978.7
1279.81	34656.4
1268.01	34783.6
1256.18	34081.3
1244.32	34143
1232.44	33229
1220.52	33144.8
1208.58	32821.4
1196.62	32526.4
1184.62	32070.1
1172.6	32104.5
1160.55	31866.3
1148.48	31852.1
1136.37	31955.7
1124.24	31850
1112.08	31637.6
1099.89	31314.2
1087.67	30739.6
1075.42	30798.4
1063.15	30740.2
1050.85	30716.5
1038.52	30318.7
1026.16	30306.1
1013.77	29868.8
1001.35	29702.6
988.903	29907.2
976.427	29626.7
963.923	30157.3
951.388	29758
938.825	29959.7
926.232	29559.6
913.61	29500.7
900.957	29665
888.276	29764.4
875.564	29817
862.822	29629.7
850.05	29504.1
837.249	29323
824.417	29301.9
811.554	29215.1
798.661	29760.5
785.738	29526.9
772.784	29349.2
759.799	29604.7
746.783	29172.8
733.737	29145.9
720.659	28984.8
707.55	29470.6
694.41	29232.4
681.239	29217
668.036	28569.5
654.801	28915.8
641.535	28416
628.237	28958.4
614.907	28957.2
601.545	28900
588.151	28835.5
574.725	28623.6
561.266	28238.8
547.775	28527
534.251	28501.5
520.695	28495
507.106	28462.1
493.484	27647.4
479.829	27744.6
466.141	27957.3
452.42	28336.7
438.665	28192.4
424.877	27905
411.055	27766.7
397.2	27816.3
383.311	27786
369.387	27555.1
355.43	27578.5
341.439	27494.9
327.413	27777.2
313.353	27579.9
299.259	26911.2
285.13	26808.4
270.966	27173.5
256.767	26935.3
242.533	26926
228.264	26707.3
213.96	26757.2
199.621	26999
185.246	26546.2
170.835	26536.9
156.389	26408.3
141.906	26237.5
127.388	26472
112.834	26029.3
100.49	20982.2