Folder: Spicy-Raman_New/Spicy-Raman/model_train_and_validate/Raman_Data/cellulose (part 2)

File: 20180911 NBay_Control 4f_1.txt
3201.2	244.251
3193.47	210.179
3185.73	230.743
3177.98	251.226
3170.21	259.09
3162.42	221.044
3154.62	208.122
3146.81	195.249
3138.98	223.887
3131.13	285.514
3123.27	235.394
3115.39	247.294
3107.49	300.28
3099.58	266.844
3091.66	278.608
3083.72	310.769
3075.76	269.344
3067.79	301.393
3059.8	292.666
3051.8	251.518
3043.78	327.944
3035.74	274.764
3027.69	270.185
3019.62	249.525
3011.54	313.293
3003.44	312.669
2995.32	352.052
2987.19	391.276
2979.04	378.542
2970.88	433.459
2962.69	440.531
2954.5	439.65
2946.28	482.252
2938.05	520.737
2929.8	492.134
2921.54	644.386
2913.26	607.802
2904.96	720.071
2896.65	722.531
2888.32	701.59
2879.97	634.051
2871.61	694.888
2863.23	1340.49
2854.83	657.293
2846.41	686.837
2837.98	639.241
2829.53	626.421
2821.07	690.356
2812.58	620.064
2804.08	672.287
2795.57	667.114
2787.03	631.523
2778.48	690.989
2769.91	708.532
2761.32	684.406
2752.72	698.11
2744.1	738.116
2735.46	823.054
2726.8	813.878
2718.12	744.847
2709.43	803.094
2700.72	868.554
2691.99	855.621
2683.25	839.023
2674.48	833.604
2665.7	905.845
2656.9	867.093
2648.08	964.737
2639.25	1014.2
2630.39	953.451
2621.52	955.153
2612.63	982.408
2603.72	965.81
2594.79	1127.49
2585.85	1165.1
2576.88	1137.34
2567.9	1225.36
2558.9	1111.01
2549.88	1141.12
2540.84	1167.5
2531.79	1304.9
2522.71	1162.68
2513.61	1303.07
2504.5	1385.88
2495.37	1375.89
2486.22	1440.45
2477.05	1359.56
2467.86	1480.4
2458.65	1523.16
2449.42	1555.17
2440.17	1611.63
2430.91	1632.8
2421.62	1636.38
2412.31	1660.88
2402.99	1723.57
2393.65	1792.94
2384.28	1785.72
2374.9	4273.3
2365.49	1754.08
2356.07	1936.47
2346.63	1846.45
2337.17	2055.31
2327.68	2044.14
2318.18	2063.76
2308.66	2086.7
2299.12	2075.5
2289.55	2220.52
2279.97	2117.58
2270.37	2238.21
2260.74	2270.59
2251.1	2245.6
2241.43	2462.58
2231.75	2470.78
2222.04	2515.72
2212.32	2463.65
2202.57	2518.39
2192.8	2576.2
2183.02	2534.24
2173.21	2753.93
2163.38	2639.07
2153.53	2712.55
2143.65	2808.73
2133.76	2845.4
2123.85	3006.35
2113.91	3114.3
2103.96	3058.73
2093.98	3117.26
2083.98	3315.15
2073.96	3275.64
2063.91	3300.95
2053.85	3229.34
2043.76	3405.9
2033.66	3453.18
2023.53	3477.81
2013.38	3655.83
2003.2	3593.69
1993.01	3668.74
1982.79	4019.92
1972.55	3979.52
1962.29	3948.77
1952.01	4022.32
1941.7	4019.91
1931.37	4234.39
1921.02	4084.05
1910.65	4219.17
1900.25	4303.7
1889.84	4503.13
1879.39	4549.31
1868.93	4567.33
1858.44	4736.94
1847.93	4701.9
1837.4	4811.85
1826.85	4850.55
1816.27	4901.33
1805.67	5141.72
1795.04	5093.79
1784.39	5283.85
1773.72	5354.4
1763.02	5907.27
1752.31	5548.99
1741.56	5524.7
1730.8	5581.89
1720.01	5723.06
1709.19	5803.51
1698.35	5937.49
1687.49	6031.99
1676.61	6054.44
1665.7	6216.63
1654.76	6369.14
1643.8	6426.14
1632.82	6562.65
1621.81	6489.09
1610.78	6542.36
1599.73	6539.56
1588.65	6806.28
1577.54	6834.98
1566.41	6904.33
1555.25	7051.91
1544.07	7071.01
1532.87	7133.44
1521.64	7415.24
1510.38	7534.21
1499.1	7523.09
1487.8	7618.2
1476.46	7778.74
1465.11	7992.82
1453.72	7980.55
1442.32	8036.58
1430.88	8163.29
1419.42	8269.54
1407.94	8378.07
1396.42	8440.94
1384.89	9100
1373.32	9093.45
1361.73	8887.98
1350.11	8929.32
1338.47	9218.58
1326.8	9122.54
1315.11	9140.67
1303.38	9064.49
1291.63	9497.01
1279.86	9406.45
1268.05	9338.24
1256.22	8968.4
1244.37	8813.74
1232.48	8829.1
1220.57	9073.27
1208.63	9115.03
1196.66	9159.24
1184.67	9078.67
1172.65	9306.27
1160.6	9484.26
1148.52	9852.22
1136.42	9703.47
1124.28	10639
1112.12	10112.6
1099.93	10584.6
1087.72	10214.7
1075.47	10013.5
1063.2	10098.7
1050.9	10041
1038.56	10130.9
1026.2	9913.01
1013.82	9892.58
1001.4	10165
988.952	10269.1
976.476	10050
963.971	10140.8
951.437	10132.7
938.874	10313.1
926.281	10358.6
913.659	10547.8
901.007	10535.9
888.325	10677.6
875.613	10897.7
862.872	11019.8
850.1	10993.9
837.298	11001
824.466	10820.7
811.604	10790.1
798.711	10973.6
785.788	11261.7
772.834	11440.6
759.849	11345.9
746.834	11576
733.787	11434
720.71	11516.1
707.601	11793.3
694.461	11849.2
681.29	11747.1
668.087	12033.8
654.853	12061.5
641.586	11942.1
628.289	12482.3
614.959	12491.4
601.597	12393.5
588.203	12506.7
574.777	12575.8
561.318	12736.2
547.827	12929.3
534.304	12960.6
520.748	13604.6
507.159	12943.5
493.537	12900.3
479.882	13156.8
466.194	13023
452.473	13493
438.718	14217.9
424.93	13491.2
411.109	13441.9
397.254	13503
383.365	14750.9
369.442	13915.2
355.485	13823.1
341.493	14033
327.468	13850.5
313.408	13976
299.314	13600.8
285.185	13836.3
271.021	13884.8
256.822	13766.1
242.588	13992.3
228.32	13869.1
214.016	13930.2
199.676	14113.2
185.301	14067
170.891	14014.2
156.445	14175
141.963	14568
127.445	14480.5
112.89	14578.4
100.547	9728.88

File: 20180914 NBay_Control 7c_1.txt
3201.25	160.028
3193.52	159.738
3185.78	109.08
3178.03	159.112
3170.26	100.294
3162.47	204.364
3154.67	158.175
3146.86	116.32
3139.02	186.575
3131.18	177.931
3123.31	177.58
3115.44	65.9458
3107.54	234.468
3099.63	184.74
3091.71	118.819
3083.77	122.673
3075.81	163.241
3067.84	215.865
3059.85	158.529
3051.85	178.499
3043.83	186.242
3035.79	153.546
3027.74	193.568
3019.67	185.133
3011.59	228.948
3003.49	156.337
2995.37	176.028
2987.24	127.765
2979.09	187.281
2970.93	262.465
2962.74	234.159
2954.55	324.791
2946.33	284.611
2938.1	358.997
2929.85	279.536
2921.59	306.48
2913.31	380.371
2905.01	387.434
2896.7	382.751
2888.37	311.822
2880.02	334.534
2871.66	326.097
2863.28	728.366
2854.88	212.656
2846.46	289.401
2838.03	296.519
2829.58	184.47
2821.12	256.969
2812.64	153.104
2804.14	252.111
2795.62	232.54
2787.08	251.091
2778.53	280.955
2769.96	215.972
2761.37	363.005
2752.77	184.907
2744.15	256.084
2735.51	281.871
2726.85	243.791
2718.18	273.239
2709.48	254.005
2700.77	294.492
2692.05	230.649
2683.3	256.165
2674.54	281.576
2665.76	218.145
2656.96	291.495
2648.14	260.679
2639.3	216.807
2630.45	322.71
2621.58	292.771
2612.69	178.954
2603.78	328.015
2594.85	327.34
2585.9	312.148
2576.94	297.017
2567.96	249.413
2558.96	194.791
2549.94	327.58
2540.9	352.05
2531.84	286.794
2522.76	354.173
2513.67	274.898
2504.56	349.145
2495.42	312.868
2486.27	244.808
2477.1	393.004
2467.91	363.922
2458.7	409.002
2449.48	365.928
2440.23	354.633
2430.96	343.382
2421.68	384.625
2412.37	362.887
2403.05	351.683
2393.7	514.26
2384.34	450.77
2374.96	408.304
2365.55	448.885
2356.13	478.955
2346.69	436.689
2337.22	463.222
2327.74	424.585
2318.24	457.861
2308.72	422.801
2299.17	449.13
2289.61	468.556
2280.03	579.378
2270.43	517.297
2260.8	533.074
2251.16	494.913
2241.49	524.103
2231.81	469.353
2222.1	545.303
2212.38	554.162
2202.63	536.331
2192.86	511.923
2183.08	603.714
2173.27	509.749
2163.44	531.785
2153.59	596.572
2143.72	601.878
2133.82	633.414
2123.91	615.687
2113.97	611.104
2104.02	596.754
2094.04	628.016
2084.04	668.883
2074.02	664.209
2063.98	691.882
2053.91	648.457
2043.83	698.572
2033.72	751.679
2023.59	724.419
2013.44	674.882
2003.27	714.918
1993.07	761.147
1982.85	721.37
1972.62	805.428
1962.35	832.164
1952.07	820.892
1941.77	935.681
1931.44	902.217
1921.09	862.619
1910.71	1045.42
1900.32	1052.51
1889.9	956.734
1879.46	1019.95
1869	1086
1858.51	1086.73
1848	1084.35
1837.47	1100.48
1826.91	1128.84
1816.33	1279.83
1805.73	1270.9
1795.11	1268.12
1784.46	1167.77
1773.79	1177.38
1763.09	1438.89
1752.37	1281.25
1741.63	1305.64
1730.86	1296.73
1720.07	1414.23
1709.26	1360.08
1698.42	1476.9
1687.56	1458.7
1676.67	1568.81
1665.76	1565.34
1654.83	1680.65
1643.87	1688.77
1632.89	1631.82
1621.88	1557.4
1610.85	1556.89
1599.79	1709.06
1588.71	1652.52
1577.61	1719
1566.48	1776.42
1555.32	1711.34
1544.14	1759.79
1532.94	1822.5
1521.71	1884.91
1510.45	1912.42
1499.17	1801.65
1487.86	1932.58
1476.53	2057.17
1465.18	2124.01
1453.79	2065.05
1442.39	2128.7
1430.95	2268.72
1419.49	2226.77
1408.01	2425.27
1396.49	2321.08
1384.96	2664.75
1373.39	2866.48
1361.8	2672.31
1350.19	2629.92
1338.54	2626.75
1326.87	2556.79
1315.18	2670.34
1303.46	2442.71
1291.71	2735.58
1279.93	2737.61
1268.13	2252.76
1256.3	2173.52
1244.44	2097.37
1232.56	1969.64
1220.64	2041.45
1208.7	2015.01
1196.74	1893.73
1184.74	2062.62
1172.72	2030.88
1160.67	2282.18
1148.6	2357.58
1136.49	2499.66
1124.36	2948.79
1112.2	2819.18
1100.01	3076.36
1087.79	2909.8
1075.55	2444.41
1063.27	2287.98
1050.97	2039.9
1038.64	2098.35
1026.28	2088.22
1013.89	1899.93
1001.47	2021
989.028	2071.07
976.553	1881.48
964.048	1967.96
951.514	1932.28
938.951	1855.41
926.358	1943.88
913.736	2067.92
901.084	2183.68
888.403	2119.68
875.691	2096.82
862.95	2290.63
850.179	2353.87
837.377	2099.8
824.545	2016.42
811.683	1946.04
798.791	1898.63
785.868	1984.58
772.914	2040.03
759.929	1995.2
746.914	2080.26
733.868	2072.83
720.79	2070.39
707.682	2196.73
694.542	2223.62
681.371	2164.09
668.168	2267.12
654.934	2251.9
641.668	2363.98
628.37	2353.44
615.041	2374.6
601.679	2405.35
588.285	2372.92
574.859	2483.28
561.401	2429.07
547.91	2488.2
534.387	2542.22
520.831	2655.83
507.242	2716.31
493.621	2666.85
479.966	2505.87
466.278	2680.05
452.557	2874.67
438.803	2995.15
425.015	2888.99
411.194	2684.67
397.339	2741.4
383.45	3134.42
369.527	2935.58
355.57	2867.94
341.579	2884.14
327.554	2997.45
313.494	2860.81
299.4	2819.25
285.271	2748
271.108	2596.86
256.909	2862.56
242.676	2905.69
228.407	2994.09
214.104	2964.02
199.764	3047.26
185.39	3087.16
170.98	3025.46
156.533	3179.77
142.052	3588.83
127.534	4125.52
112.98	4750.97
100.637	4017.59

File: 20181203 NBay Control 7-9d_1.txt
3201.19	1553.94
3193.46	1702.45
3185.72	1678.13
3177.97	1817.19
3170.2	1717.51
3162.41	1830.91
3154.61	1977.15
3146.8	1898.48
3138.97	2114.48
3131.12	2135.14
3123.26	2271.34
3115.38	2250.37
3107.48	2377.55
3099.57	2549.38
3091.65	2593.5
3083.71	2690.6
3075.75	2930.13
3067.78	3233.86
3059.79	3105.5
3051.79	3411.71
3043.77	3421.13
3035.73	3430.5
3027.68	3806.78
3019.61	3767.01
3011.53	3924.19
3003.43	4020.6
2995.31	4468.65
2987.18	4455.75
2979.03	4606.24
2970.86	4807.81
2962.68	4881.55
2954.49	5200.53
2946.27	5320.57
2938.04	5420.38
2929.79	5504.01
2921.53	5984.13
2913.25	6246.62
2904.95	6335.83
2896.64	6506.66
2888.31	6727.45
2879.96	6912.3
2871.6	7084.73
2863.22	7605.11
2854.82	7477.66
2846.4	7651.65
2837.97	8317.81
2829.52	8377.88
2821.06	8660.11
2812.57	8780.39
2804.07	9182.81
2795.55	9392.94
2787.02	9739.13
2778.47	9977.55
2769.9	10434.7
2761.31	10799.2
2752.71	10973.5
2744.08	11286.4
2735.44	11496.4
2726.79	11881.8
2718.11	12336.7
2709.42	12352.7
2700.71	12759.9
2691.98	13340.2
2683.24	13803
2674.47	14289.8
2665.69	14504.6
2656.89	15061.6
2648.07	15321.6
2639.24	15709.1
2630.38	16109.6
2621.51	16259.5
2612.62	17120.9
2603.71	17716.2
2594.78	17941.6
2585.84	18445.5
2576.87	18972.6
2567.89	19623.8
2558.89	19478.8
2549.87	19942.5
2540.83	20670.1
2531.77	21132.8
2522.7	21786.7
2513.6	21991.5
2504.49	22840.2
2495.36	23041.7
2486.2	23799.2
2477.03	24387.1
2467.84	25018.4
2458.64	25460
2449.41	26209.2
2440.16	26509.3
2430.89	27056.7
2421.61	27367.4
2412.3	28412.9
2402.98	28559
2393.63	29288.1
2384.27	29785.1
2374.89	30328.3
2365.48	31269.5
2356.06	31493.4
2346.62	32159.7
2337.15	32843.7
2327.67	33675.2
2318.17	34311.7
2308.65	34675.9
2299.1	35718.9
2289.54	36292.2
2279.96	36615.4
2270.35	37373.3
2260.73	37881.4
2251.09	38622.8
2241.42	39313.8
2231.74	40092.2
2222.03	40703.1
2212.31	41084.2
2202.56	42189.6
2192.79	42169.8
2183	44229.7
2173.19	44264.7
2163.36	45234
2153.51	45506.9
2143.64	46449.2
2133.75	46589.7
2123.83	48442
2113.9	48832
2103.94	50009.1
2093.96	50875
2083.96	51409
2073.94	51917.7
2063.9	52229.8
2053.84	53195.2
2043.75	54674.5
2033.64	54932.8
2023.51	55378.7
2013.36	57258.5
2003.19	58274.5
1993	58925.9
1982.78	59764.7
1972.54	60520.3
1962.28	61303.9
1951.99	62497.3
1941.69	62768.4
1931.36	64094.1
1921.01	64322.1
1910.64	65550.3
1900.24	66607.2
1889.82	67765
1879.38	68413.6
1868.92	69781.9
1858.43	70608.1
1847.92	71785.6
1837.39	72612.2
1826.83	73176.4
1816.25	73897.2
1805.65	74727.7
1795.03	75526.6
1784.38	76772.7
1773.71	78505.7
1763.01	79110.4
1752.29	80832.7
1741.55	81105.2
1730.78	81550.9
1719.99	82388.3
1709.18	83653.8
1698.34	85113.8
1687.48	85697
1676.59	86503.8
1665.68	87496.8
1654.75	88918.4
1643.79	90279.7
1632.81	91900.5
1621.8	93631.4
1610.77	95127.4
1599.71	98921.2
1588.63	104699
1577.53	103282
1566.4	101222
1555.24	101046
1544.06	99955
1532.85	100450
1521.62	101197
1510.37	103292
1499.09	104365
1487.78	104102
1476.45	104146
1465.09	105530
1453.71	106496
1442.3	108764
1430.87	111892
1419.41	112946
1407.92	114867
1396.41	113178
1384.87	116786
1373.31	119186
1361.72	122507
1350.1	123529
1338.46	123887
1326.79	121848
1315.09	121402
1303.37	122815
1291.62	129040
1279.84	130794
1268.04	123388
1256.21	123290
1244.35	124350
1232.47	124812
1220.56	127186
1208.62	127896
1196.65	128115
1184.66	129976
1172.63	127082
1160.58	134714
1148.51	134100
1136.4	136425
1124.27	132552
1112.11	126944
1099.92	126142
1087.7	125760
1075.46	125710
1063.18	125956
1050.88	126580
1038.55	126955
1026.19	126909
1013.8	127348
1001.38	127324
988.936	127397
976.46	126559
963.955	129076
951.421	129890
938.858	130861
926.265	130322
913.643	130853
900.991	131044
888.309	130829
875.597	131515
862.856	133091
850.084	134484
837.282	134644
824.45	133742
811.588	133737
798.695	134443
785.772	135055
772.818	135612
759.833	136441
746.817	136290
733.771	135339
720.693	136532
707.585	137146
694.445	138232
681.273	138186
668.07	137761
654.836	138686
641.57	138484
628.272	139700
614.942	140681
601.58	140759
588.186	139098
574.76	139620
561.301	139569
547.81	140102
534.287	141097
520.731	143075
507.142	142620
493.52	151407
479.865	143115
466.177	140081
452.456	142659
438.701	142601
424.913	142408
411.091	141843
397.236	141871
383.347	141624
369.424	140833
355.467	140217
341.476	140657
327.45	140986
313.39	140854
299.296	138935
285.167	138659
271.003	140688
256.804	140775
242.571	137974
228.302	137874
213.998	138875
199.658	138102
185.283	136063
170.873	134873
156.427	134022
141.944	134208
127.426	133126
112.872	130752
100.529	99803.6

File: 20181203 NBay Control 7-9e_1.txt
3201.19	357.953
3193.46	290.047
3185.72	302.063
3177.97	401.96
3170.2	330.129
3162.41	392.04
3154.61	395.431
3146.8	336.493
3138.97	398.02
3131.12	355.857
3123.26	396.452
3115.38	436.885
3107.48	448.362
3099.57	422.844
3091.65	446.591
3083.71	388.46
3075.75	404.015
3067.78	496.89
3059.79	483.71
3051.79	462.467
3043.77	502.036
3035.73	529.323
3027.68	584.727
3019.61	651.982
3011.53	594.452
3003.43	609.303
2995.31	700.102
2987.18	646.802
2979.03	753.097
2970.86	791.36
2962.68	845.341
2954.49	891.181
2946.27	849.869
2938.04	974.407
2929.79	909.462
2921.53	895.851
2913.25	960.716
2904.95	1009.66
2896.64	1085.75
2888.31	1099.15
2879.96	995.808
2871.6	997.686
2863.22	1456.71
2854.82	1109.66
2846.4	1091.99
2837.97	1139.85
2829.52	1241.31
2821.06	1181.27
2812.57	1263.09
2804.07	1268.17
2795.55	1288.48
2787.02	1331.52
2778.47	1325.03
2769.9	1409.48
2761.31	1327.22
2752.71	1305.65
2744.08	1487.53
2735.44	1507.05
2726.79	1609
2718.11	1545.83
2709.42	1647.27
2700.71	1670.01
2691.98	1852.6
2683.24	1741.15
2674.47	1948.78
2665.69	1870.84
2656.89	2003.53
2648.07	1826.37
2639.24	2131.29
2630.38	2053.58
2621.51	2155.49
2612.62	2333.67
2603.71	2314.29
2594.78	2225.88
2585.84	2319.3
2576.87	2470.27
2567.89	2483.25
2558.89	2600.77
2549.87	2692.6
2540.83	2611.6
2531.77	2688.65
2522.7	2590.08
2513.6	2773.93
2504.49	2924.94
2495.36	2936.65
2486.2	3019.25
2477.03	3133.36
2467.84	3232.85
2458.64	3349.53
2449.41	3511.45
2440.16	3381.25
2430.89	3531.87
2421.61	3507.03
2412.3	3688.13
2402.98	3746.58
2393.63	3964.61
2384.27	3914.71
2374.89	3906.51
2365.48	3967.39
2356.06	4183.04
2346.62	4218.97
2337.15	4388.54
2327.67	4372.47
2318.17	4469.2
2308.65	4555.26
2299.1	4824.67
2289.54	4766.97
2279.96	4841.63
2270.35	5003.84
2260.73	4942.66
2251.09	5171.25
2241.42	5103.2
2231.74	5296.9
2222.03	5583.42
2212.31	5551.55
2202.56	5876.23
2192.79	5840.48
2183	5980.66
2173.19	6080.48
2163.36	6110.48
2153.51	6222.71
2143.64	6285.09
2133.75	6619.56
2123.83	6536.66
2113.9	6686.09
2103.94	6805.49
2093.96	6842.99
2083.96	6854.32
2073.94	7218.71
2063.9	7235.55
2053.84	7087.75
2043.75	7317.19
2033.64	7410.67
2023.51	7689.62
2013.36	7900.15
2003.19	7876.74
1993	8028.54
1982.78	8227.3
1972.54	8441.01
1962.28	8543
1951.99	8625.54
1941.69	8720.28
1931.36	9050.32
1921.01	8867.58
1910.64	9186.37
1900.24	9500.59
1889.82	9514.21
1879.38	9652.1
1868.92	9935.15
1858.43	9975.42
1847.92	10129.7
1837.39	10326.5
1826.83	10476.2
1816.25	10812.4
1805.65	10595.8
1795.03	10869
1784.38	10973.2
1773.71	11128.6
1763.01	11280.2
1752.29	11622
1741.55	11448.3
1730.78	11794
1719.99	11861.3
1709.18	11988.3
1698.34	12330.3
1687.48	12117.7
1676.59	12794.8
1665.68	12701.1
1654.75	13112.4
1643.79	13370.7
1632.81	13299.7
1621.8	13529.7
1610.77	13467.3
1599.71	13825
1588.63	13800
1577.53	14231.2
1566.4	14400.8
1555.24	14432.7
1544.06	14592.1
1532.85	14600
1521.62	14908.5
1510.37	15169.3
1499.09	15354.1
1487.78	15336.9
1476.45	15417.1
1465.09	15479.6
1453.71	15906.9
1442.3	15865.4
1430.87	16170.4
1419.41	16306.7
1407.92	16541.3
1396.41	16633.7
1384.87	16967.5
1373.31	17437.2
1361.72	17616.3
1350.1	17500.9
1338.46	17793
1326.79	17585.7
1315.09	17512.4
1303.37	17375.6
1291.62	18212
1279.84	18222.9
1268.04	17433.2
1256.21	17829.7
1244.35	17690.4
1232.47	18051.5
1220.56	17868.5
1208.62	17990.7
1196.65	17767.7
1184.66	18268.3
1172.63	18320.8
1160.58	18300.3
1148.51	18803.8
1136.4	18902.7
1124.27	19734.1
1112.11	19290.8
1099.92	20050.6
1087.7	19783.7
1075.46	19247.4
1063.18	19713.3
1050.88	19496.1
1038.55	19350.8
1026.19	19350.5
1013.8	19245.3
1001.38	19678.9
988.936	19622.7
976.46	19714.9
963.955	20037.5
951.421	19887.1
938.858	19954.3
926.265	19943.7
913.643	20246.8
900.991	20371.3
888.309	20712.6
875.597	21123.6
862.856	21466.3
850.084	21581
837.282	21246.2
824.45	21297.3
811.588	21262.2
798.695	21113.7
785.772	21606.4
772.818	21673.1
759.833	21979.3
746.817	21872.3
733.771	21999.5
720.693	21989.5
707.585	22321
694.445	22912.7
681.273	22599.3
668.07	22739.7
654.836	22847.3
641.57	22990.9
628.272	23243.5
614.942	23472.8
601.58	23241.6
588.186	23493.7
574.76	23505
561.301	23590.8
547.81	23844.4
534.287	23820.6
520.731	24227.7
507.142	24045
493.52	23875
479.865	23929
466.177	23977.8
452.456	24752.5
438.701	24940.3
424.913	24926.8
411.091	24680.7
397.236	24533.9
383.347	25472.2
369.424	25002.1
355.467	24996.9
341.476	24952.1
327.45	24990.6
313.39	25167.3
299.296	24898.3
285.167	24625.9
271.003	24739.6
256.804	25117.8
242.571	24679.7
228.302	24891.9
213.998	24914.5
199.658	25038.7
185.283	24629.1
170.873	24617.7
156.427	24345.6
141.944	24845.6
127.426	25206.6
112.872	25119.5
100.529	20570.6

File: NBay_Control 1-6.txt
3201.7	29508.9
3192.17	29319.1
3182.63	29289
3173.08	29108.4
3163.51	28651.3
3153.94	28381.8
3144.35	28136.3
3134.75	28387.3
3125.14	28251.5
3115.52	27988.7
3105.89	27545
3096.24	27543.9
3086.59	27660.6
3076.92	27629.6
3067.24	27286.2
3057.55	27483.8
3047.84	26981.7
3038.13	27116.1
3028.4	27027.8
3018.66	27100.1
3008.91	27202.8
2999.15	26848.4
2989.37	27675.9
2979.59	27758.2
2969.79	27886.3
2959.98	27681.5
2950.15	27559.9
2940.32	27792.9
2930.47	27736.1
2920.61	27870.6
2910.74	28193.4
2900.86	28277.6
2890.96	27885.6
2881.05	27044.3
2871.13	26466.9
2861.2	25902.3
2851.26	25317.6
2841.3	24877.4
2831.33	24723.9
2821.35	24465.6
2811.36	24210.4
2801.35	24130.6
2791.34	23964.9
2781.3	23807
2771.26	23368.3
2761.21	23630.1
2751.14	23460.7
2741.06	23318.8
2730.97	23157.5
2720.86	22947
2710.74	22943.3
2700.61	22684.2
2690.47	22457.7
2680.31	22424.9
2670.15	22140.2
2659.97	22125
2649.77	22027.6
2639.57	21703.9
2629.35	21624.3
2619.11	21481.3
2608.87	21513.1
2598.61	21016.1
2588.34	21179.6
2578.06	20919.9
2567.76	20819.7
2557.46	20689.4
2547.13	20567.9
2536.8	20614.7
2526.45	20436.7
2516.09	20461.8
2505.72	20260.3
2495.33	19934.1
2484.93	19960.7
2474.52	19851.7
2464.09	19742.8
2453.65	19832.9
2443.2	19450.5
2432.74	19344.8
2422.26	19121.4
2411.77	19238.9
2401.26	19006.5
2390.74	18830.5
2380.21	18550.5
2369.67	18653.8
2359.11	18532
2348.54	18397.5
2337.95	18390.7
2327.36	18235.4
2316.74	18099.2
2306.12	17798.8
2295.48	17750.4
2284.83	17879.1
2274.16	17428.9
2263.48	17582.2
2252.79	17250.2
2242.08	17420.8
2231.36	17208.6
2220.63	16842.2
2209.88	16847.4
2199.12	16799.2
2188.34	16538.9
2177.56	16426.3
2166.75	16246.9
2155.94	16255
2145.11	16158.1
2134.26	15926.5
2123.4	15803.7
2112.53	15739.8
2101.65	15780.4
2090.75	15591.7
2079.83	15608.3
2068.9	15299
2057.96	15277.1
2047	15071.5
2036.03	15037.3
2025.05	14982.7
2014.05	14829.4
2003.04	14624.2
1992.01	14792.3
1980.97	14489.2
1969.91	14347.3
1958.84	14263.3
1947.76	14074.6
1936.66	13979.8
1925.55	14030.3
1914.42	13841.5
1903.28	13708
1892.12	13606.3
1880.95	13425.3
1869.77	13431.3
1858.57	13306.8
1847.35	13188.1
1836.12	13040.8
1824.88	12824.9
1813.62	12735
1802.35	12707.3
1791.06	12562.3
1779.76	12601.2
1768.44	12281.2
1757.11	12163.7
1745.76	12044.3
1734.4	11905.4
1723.02	11837.1
1711.63	11799.6
1700.22	11727.2
1688.8	11637.4
1677.37	11807.9
1665.91	11670.2
1654.45	11491.4
1642.97	11359.9
1631.47	11253.7
1619.96	11071.7
1608.43	11019.2
1596.89	10819.6
1585.33	10683.2
1573.76	10614
1562.17	10484.7
1550.57	10459
1538.95	10361.3
1527.31	10203.7
1515.66	10042.2
1504	9989.24
1492.32	9893.64
1480.62	9884.79
1468.91	9785.27
1457.18	9831.94
1445.44	9590.14
1433.68	9562.51
1421.91	9552.98
1410.12	9451.25
1398.31	9402.68
1386.49	9707.21
1374.65	9664.71
1362.8	9390.41
1350.93	9173.67
1339.05	9072.06
1327.15	8789.08
1315.23	8711.27
1303.3	8544.65
1291.35	9120.84
1279.39	8957.21
1267.4	8302.83
1255.41	8129.23
1243.4	8017.43
1231.37	7859.18
1219.32	7716.89
1207.26	7657.82
1195.18	7576.14
1183.09	7506.02
1170.98	7613.51
1158.85	7553.79
1146.71	7649.57
1134.55	7561.15
1122.37	7718.19
1110.18	7466.95
1097.97	7538.71
1085.75	7179.01
1073.51	6950.89
1061.25	6902.74
1048.97	6681.68
1036.68	6603.5
1024.37	6473.75
1012.05	6339.26
999.706	6253.71
987.347	6136.02
974.972	6118.59
962.579	5940.88
950.17	5887.48
937.744	5784.95
925.3	5723.84
912.84	5696.97
900.363	5629.11
887.868	5558.42
875.357	5567.79
862.828	5617
850.282	5603.33
837.719	5318.2
825.138	5148.04
812.541	5050.73
799.926	4847.7
787.293	4809.39
774.643	4760.31
761.976	4694.58
749.292	4697.97
736.589	4635.43
723.87	4478.76
711.132	4516.72
698.378	4472.28
685.605	4385.9
672.815	4313.41
660.007	4280.14
647.181	4179.73
634.338	4150.59
621.476	4090.44
608.597	4051.78
595.7	4017.1
582.785	3965.09
569.852	3862.98
556.901	3830.6
543.932	3690.4
530.945	3671.8
517.94	3705.11
504.917	3574.27
491.875	3528.1
478.816	3466.73
465.738	3385.47
452.641	3377.87
439.526	3364.57
426.393	3273.3
413.242	3207.92
400.072	3153.14
386.884	3166.72
373.677	3082.81
360.451	2924.51
347.207	3002.47
333.944	2839.06
320.663	2783.33
307.362	2766.26
294.044	2677.94
280.706	2586.12
267.349	2552.54
253.974	2590.96
240.579	2564.92
227.166	2577.13
213.734	2519.54
200.282	2528.97
186.812	2459.54
173.322	2321.77
159.813	2385.06
146.285	2539.59
132.738	2651.25
119.172	2798.51
105.586	2830.39
100.146	2320.55