Folder: Spicy-Raman_New/Spicy-Raman/model_train_and_validate/Raman_Data/polyethylene

Note: Spicy-Raman/README.md
# Spicy-Raman <img src="https://github.com/nsuzuki97/Spicy-Raman/blob/master/logo.png" width="25%">

[![Build Status](https://travis-ci.org/nsuzuki97/Spicy-Raman.svg?branch=master)](https://travis-ci.org/nsuzuki97/Spicy-Raman)[![License: MIT](https://img.shields.io/badge/License-MIT-yellow.svg)](https://opensource.org/licenses/MIT)

<img src="https://www.cei.washington.edu/wordpress/wp-content/uploads/2016/01/CEI_logo_tag_color.1.png" width="555" height="160">  ![image](https://i.dailymail.co.uk/1/2018/09/27/17/4591062-0-image-m-35_1538065690576.jpg)

### Background
-----------
Microplastic ingestion has been considered to be a serious detriment to marine organisms, from oysters to orca whales. The majority of these samples have been identified to be one of four categories: polyethylene, nylon, polyamides, and fluorescents. Although comprising only about 20 - 25% of the total samples, this still represents about 10+ hours of analysis per study. By categorizing and filtering out these major classes of spectra, researchers will be able to focus on identifying novel groups of microparticles.

### Project Scope, Quick Intro
-----------
We employed TensorFlow (and the keras API because we are beginners) to create a model to classify the Raman spectrum from orca whale samples. The goal of our project is to machine learn the pattern of Raman spectra by polymer categories(e.g. polyamide, polyethylene), and let it expect the type a designated material falls into.
In this specific model, 3 levels of neurons were used in order to optimize adequate complexity with ease of model creation and speed.

We acquired Raman spectra from Luscombe Lab. We acquired them as .txt files so that we can finally change them into image files that can be used with Tensorflow(or Keras?). We first plotted those text data and converted them into image files(.png).

However since the amount of data we could get was less than we expected, we talked to Jimin Qian with this issue, and we decided to do data augmentation.
We first converted images into a numpy array(img_to_array), expanded dimension(expand_dims), and created image data augmentation generator(ImageDataGenerator(zoom_range=[0.5,1.0])). We used os.scandir() function to iterate over data not yet augmented and got augmented data.

We then created image databse in order to load these image data into codes.

The augmented data was then separated 80/20 into training and validation data.
They were stored in either "trainingdata_Pictures" directory or "validationdata_Pictures".

Each train and validation set were then split into 5 categories: flourescent, nylon, polyamide, polyethylene, and unknown.

### Sturcture

```
|-Licence

|-README

|-model_train_and_validate/

  |-Post_Augmented_Raman_Pictures
  
  |-Pre_Augmented_Raman_Picture
  
  |-Raman_Data
  
  |-py_files
  
  |-test/
  
  |-preprocessing.py
    
  |-Augmentation.py
    
  |-pic_class.py
    
  |-TrainTestSplit.py
    
    |-test_Augmentation.py
    
    |-test_pic

File: 20191004 Set3Sample3_4 5_.txt
3201.26	16.8451
3193.54	25.2219
3185.8	54.5403
3178.05	66.9946
3170.28	33.4315
3162.49	66.7314
3154.69	12.4875
3146.87	24.9258
3139.04	41.4612
3131.19	33.1036
3123.33	28.9085
3115.45	57.7028
3107.56	57.5888
3099.65	53.3697
3091.73	24.5834
3083.79	28.6239
3075.83	44.8914
3067.86	36.6565
3059.87	52.8433
3051.87	16.2272
3043.85	4.04875
3035.81	36.3664
3027.76	32.2614
3019.69	52.3205
3011.61	16.0666
3003.51	48.1038
2995.39	36.0059
2987.26	31.9414
2979.11	59.7707
2970.94	67.6049
2962.76	59.5322
2954.57	71.2958
2946.35	79.0591
2938.12	90.7359
2929.87	78.7428
2921.61	78.5849
2913.33	109.798
2905.03	117.405
2896.72	117.169
2888.39	187.094
2880.04	186.717
2871.68	128.11
2863.3	224.71
2854.9	177.859
2846.48	185.218
2838.05	96.2728
2829.6	53.8039
2821.14	61.366
2812.66	38.2762
2804.15	22.9193
2795.64	34.3093
2787.1	15.2177
2778.55	37.9671
2769.98	30.312
2761.39	26.4692
2752.79	41.51
2744.17	37.6596
2735.53	48.8579
2726.87	33.7559
2718.2	59.8882
2709.5	41.0892
2700.79	33.5499
2692.07	52.0822
2683.32	37.1256
2674.56	25.9348
2665.78	48.0661
2656.98	44.2779
2648.16	55.234
2639.32	18.3736
2630.47	55.0077
2621.6	40.2562
2612.71	40.1735
2603.8	51.0248
2594.87	72.7426
2585.92	61.704
2576.96	43.466
2567.98	21.6882
2558.98	36.0725
2549.96	43.1976
2540.92	35.9237
2531.86	39.4343
2522.79	64.3954
2513.69	32.1311
2504.58	24.9391
2495.45	42.664
2486.29	24.8357
2477.12	42.4871
2467.93	24.7327
2458.73	42.3107
2449.5	42.2227
2440.25	31.6011
2430.98	45.5509
2421.7	45.4559
2412.39	48.8503
2403.07	55.7124
2393.72	41.697
2384.36	31.2073
2374.98	51.9033
2365.57	58.7006
2356.15	58.5775
2346.71	41.2621
2337.25	37.7442
2327.76	71.9058
2318.26	37.5857
2308.74	54.5551
2299.2	47.6352
2289.63	81.4884
2280.05	33.8819
2270.45	47.3345
2260.82	23.6173
2251.18	67.3354
2241.52	53.7544
2231.83	63.6982
2222.13	70.2541
2212.4	90.1353
2202.65	66.6252
2192.89	63.1596
2183.1	69.6596
2173.29	62.8914
2163.46	72.6666
2153.61	69.2158
2143.74	69.0683
2133.84	52.5112
2123.93	75.3238
2114	75.1628
2104.04	68.4802
2094.06	65.0797
2084.06	68.1874
2074.04	93.9617
2064	54.9629
2053.93	93.5589
2043.85	103.016
2033.74	77.0957
2023.61	73.7244
2013.46	76.7642
2003.29	67.0239
1993.09	124.204
1982.88	117.581
1972.64	107.814
1962.38	155.043
1952.09	126.292
1941.79	119.717
1931.46	125.745
1921.11	163.114
1910.74	172.15
1900.34	159.283
1889.92	158.937
1879.48	192.797
1869.02	183.069
1858.53	191.958
1848.02	210.075
1837.49	166.46
1826.94	233.766
1816.36	227.116
1805.75	241.931
1795.13	250.569
1784.48	250.019
1773.81	240.344
1763.11	294.458
1752.4	242.318
1741.65	296.187
1730.89	280.457
1720.1	267.803
1709.28	309.246
1698.45	323.542
1687.58	298.915
1676.7	340.009
1665.79	336.281
1654.85	397.893
1643.9	349.607
1632.91	357.7
1621.91	333.309
1610.88	356.114
1599.82	358.258
1588.74	348.671
1577.63	374.206
1566.5	344.202
1555.35	413.285
1544.17	400.746
1532.96	396.953
1521.73	396.065
1510.48	395.178
1499.2	414.439
1487.89	430.739
1476.56	489.941
1465.2	594.613
1453.82	576.162
1442.41	714.313
1430.98	553.694
1419.52	509.95
1408.03	514.453
1396.52	482.268
1384.98	548.711
1373.42	547.47
1361.83	557.435
1350.21	558.966
1338.57	580.006
1326.9	606.511
1315.2	596.805
1303.48	650.839
1291.73	574.75
1279.96	548.628
1268.15	412.596
1256.32	365
1244.47	347.737
1232.58	352.406
1220.67	335.246
1208.73	326.32
1196.77	325.572
1184.77	335.652
1172.75	321.378
1160.7	301.778
1148.62	287.642
1136.52	332.574
1124.39	355.89
1112.23	290.996
1100.04	311.632
1087.82	244.478
1075.57	257.168
1063.3	388.827
1051	226.949
1038.67	226.423
1026.31	210.137
1013.92	235.854
1001.5	196.088
989.056	206.065
976.581	202.982
964.076	210.297
951.542	168.363
938.979	196.395
926.387	170.154
913.765	241.773
901.113	241.207
888.431	266.241
875.72	245.183
862.979	244.607
850.207	251.657
837.406	230.777
824.574	202.402
811.712	217.069
798.819	239.219
785.896	213.532
772.943	203.002
759.958	220.023
746.943	172.109
733.897	199.073
720.819	186.187
707.711	212.987
694.571	234.716
681.4	248.946
668.198	218.845
654.963	264.93
641.698	247.167
628.4	222.162
615.07	236.243
601.709	257.544
588.315	256.926
574.889	258.727
561.431	231.571
547.94	252.671
534.417	242.46
520.861	251.455
507.273	267.571
493.651	264.542
479.996	278.167
466.309	282.237
452.588	300.481
438.834	280.871
425.046	294.316
411.225	338.228
397.37	330.376
383.481	357.62
369.558	314.778
355.601	362.856
341.61	359.649
327.585	358.77
313.526	387.908
299.431	400.778
285.303	457.237
271.139	424.026
256.941	413.838
242.708	469.839
228.439	475.508
214.135	440.292
199.796	489.013
185.422	494.58
171.011	545.171
156.565	575.282
142.084	607.481
127.566	706.597
113.012	762.836
100.669	701.135

File: 20191004 Set3Sample3_5 5_.txt
3201.26	46.3241
3193.54	42.0366
3185.8	46.1494
3178.05	50.246
3170.28	12.5368
3162.49	50.0486
3154.69	8.32501
3146.87	29.0802
3139.04	37.3151
3131.19	4.13795
3123.33	-4.12978
3115.45	45.3379
3107.56	41.1349
3099.65	45.1589
3091.73	36.8751
3083.79	36.8022
3075.83	24.4862
3067.86	52.9483
3059.87	32.519
3051.87	32.4544
3043.85	52.6338
3035.81	36.3664
3027.76	36.2941
3019.69	48.2959
3011.61	44.1831
3003.51	64.1384
2995.39	80.0132
2987.26	43.9195
2979.11	71.7248
2970.94	67.6049
2962.76	43.6569
2954.57	71.2958
2946.35	114.636
2938.12	98.626
2929.87	141.737
2921.61	113.948
2913.33	133.326
2905.03	121.318
2896.72	132.792
2888.39	202.685
2880.04	221.727
2871.68	131.992
2863.3	139.475
2854.9	177.859
2846.48	173.641
2838.05	69.3164
2829.6	69.1765
2821.14	30.683
2812.66	49.7591
2804.15	45.8385
2795.64	72.4307
2787.1	15.2177
2778.55	26.577
2769.98	56.8351
2761.39	49.1571
2752.79	52.8309
2744.17	22.5958
2735.53	48.8579
2726.87	67.5117
2718.2	104.804
2709.5	44.8246
2700.79	41.0054
2692.07	85.5635
2683.32	51.9758
2674.56	37.0497
2665.78	40.6713
2656.98	36.8982
2648.16	33.1404
2639.32	55.1207
2630.47	58.6749
2621.6	43.9158
2612.71	29.2171
2603.8	54.6694
2594.87	69.1055
2585.92	43.5558
2576.96	32.5995
2567.98	25.3029
2558.98	64.9305
2549.96	32.3982
2540.92	61.0702
2531.86	68.1138
2522.79	53.6629
2513.69	96.3932
2504.58	57.0035
2495.45	67.5514
2486.29	42.5755
2477.12	67.2713
2467.93	70.6648
2458.73	52.8884
2449.5	77.4082
2440.25	66.7134
2430.98	70.0783
2421.7	55.9457
2412.39	69.7862
2403.07	73.1225
2393.72	69.4949
2384.36	52.0122
2374.98	44.9829
2365.57	51.7946
2356.15	68.9148
2346.71	68.7702
2337.25	65.1946
2327.76	65.0576
2318.26	92.2559
2308.74	81.8327
2299.2	47.6352
2289.63	91.6744
2280.05	57.5992
2270.45	84.526
2260.82	60.7302
2251.18	53.8683
2241.52	73.9122
2231.83	77.1083
2222.13	83.6359
2212.4	76.7819
2202.65	76.619
2192.89	76.4563
2183.1	122.734
2173.29	92.682
2163.46	75.9696
2153.61	82.3998
2143.74	62.4904
2133.84	91.8947
2123.93	88.4236
2114	98.0385
2104.04	107.612
2094.06	100.874
2084.06	113.646
2074.04	103.682
2064	129.324
2053.93	80.6543
2043.85	138.427
2033.74	115.644
2023.61	153.86
2013.46	105.551
2003.29	153.197
1993.09	124.204
1982.88	155.715
1972.64	136.353
1962.38	180.356
1952.09	151.55
1941.79	176.425
1931.46	182.33
1921.11	169.388
1910.74	219.1
1900.34	215.501
1889.92	205.683
1879.48	242.551
1869.02	235.817
1858.53	241.496
1848.02	268.773
1837.49	271.269
1826.94	261.449
1816.36	242.462
1805.75	244.994
1795.13	265.847
1784.48	307.951
1773.81	316.402
1763.11	321.779
1752.4	327.13
1741.65	365.7
1730.89	355.848
1720.1	349.047
1709.28	363.289
1698.45	359.491
1687.58	364.676
1676.7	399.66
1665.79	461.271
1654.85	478.066
1643.9	432.565
1632.91	452.299
1621.91	436.547
1610.88	409.089
1599.82	463.974
1588.74	395.551
1577.63	461.91
1566.5	449.213
1555.35	486.046
1544.17	455.921
1532.96	498.364
1521.73	531.942
1510.48	475.945
1499.2	506.537
1487.89	525.502
1476.56	573.03
1465.2	694.668
1453.82	735.89
1442.41	839.531
1430.98	678.63
1419.52	626.105
1408.03	624.693
1396.52	609.18
1384.98	619.059
1373.42	648.541
1361.83	652.675
1350.21	693.118
1338.57	725.008
1326.9	753.966
1315.2	702.287
1303.48	764.389
1291.73	757.123
1279.96	686.474
1268.15	541.876
1256.32	485.752
1244.47	492.856
1232.58	448.02
1220.67	430.641
1208.73	399.742
1196.77	398.825
1184.77	408.737
1172.75	426.703
1160.7	420.333
1148.62	368.289
1136.52	415.718
1124.39	457.573
1112.23	397.784
1100.04	383.548
1087.82	417.207
1075.57	387.078
1063.3	521.08
1051	345.702
1038.67	334.369
1026.31	325.712
1013.92	285.646
1001.5	300.668
989.056	305.185
976.581	330.496
964.076	298.57
951.542	321.185
938.979	323.018
926.387	296.481
913.765	339.512
901.113	374.64
888.431	381.441
875.72	408.639
862.979	410.226
850.207	452.475
837.406	365.185
824.574	354.204
811.712	310.459
798.819	322.316
785.896	354.212
772.943	350.867
759.958	340.035
746.943	346.712
733.897	373.261
720.819	354.997
707.711	354.153
694.571	400.253
681.4	369.721
668.198	390.97
654.963	358.147
641.698	381.763
628.4	405.263
615.07	409.164
601.709	405.753
588.315	429.018
574.889	437.66
561.431	455.906
547.94	437.964
534.417	415.303
520.861	416.697
507.273	465.861
493.651	428.987
479.996	458.857
466.309	457.746
452.588	437.709
438.834	479.132
425.046	515.641
411.225	528.481
397.37	524.852
383.481	560.972
369.558	631.887
355.601	569.869
341.61	563.837
327.585	562.458
313.526	625.733
299.431	672.57
285.303	634.157
271.139	680.733
256.941	706.497
242.708	720.724
228.439	805.406
214.135	880.585
199.796	860.3
185.422	871.725
171.011	925.889
156.565	961.8
142.084	981.833
127.566	1138.16
113.012	1320.47
100.669	1173.01

File: 20191004 Set3Sample3_6 5_.txt
3201.26	29.479
3193.54	42.0366
3185.8	29.3678
3178.05	58.6203
3170.28	58.505
3162.49	45.8778
3154.69	45.7875
3146.87	41.5431
3139.04	-4.14612
3131.19	53.7933
3123.33	41.2978
3115.45	57.7028
3107.56	16.454
3099.65	28.7375
3091.73	36.8751
3083.79	44.9804
3075.83	53.0534
3067.86	28.5106
3059.87	44.7136
3051.87	52.7385
3043.85	48.585
3035.81	64.6514
3027.76	12.098
3019.69	60.3698
3011.61	60.2497
3003.51	48.1038
2995.39	68.0112
2987.26	99.817
2979.11	67.7401
2970.94	83.5119
2962.76	111.127
2954.57	158.435
2946.35	185.789
2938.12	287.988
2929.87	291.348
2921.61	271.118
2913.33	286.26
2905.03	383.523
2896.72	394.469
2888.39	456.041
2880.04	552.373
2871.68	419.269
2863.3	542.402
2854.9	444.647
2846.48	567.229
2838.05	204.098
2829.6	138.353
2821.14	88.2136
2812.66	91.8629
2804.15	64.9379
2795.64	64.8064
2787.1	72.284
2778.55	41.7638
2769.98	79.5691
2761.39	98.3142
2752.79	56.6045
2744.17	75.3192
2735.53	93.9575
2726.87	131.273
2718.2	74.8602
2709.5	74.7076
2700.79	85.7386
2692.07	74.4031
2683.32	63.1134
2674.56	44.4596
2665.78	66.553
2656.98	51.6575
2648.16	84.6921
2639.32	84.5185
2630.47	73.3436
2621.6	51.2351
2612.71	65.7384
2603.8	76.5372
2594.87	50.9199
2585.92	79.8522
2576.96	90.5542
2567.98	46.9911
2558.98	32.4652
2549.96	35.998
2540.92	86.2168
2531.86	71.6988
2522.79	75.128
2513.69	42.8414
2504.58	74.8172
2495.45	95.9941
2486.29	39.0276
2477.12	84.9743
2467.93	74.198
2458.73	59.9402
2449.5	84.4453
2440.25	91.292
2430.98	87.5978
2421.7	62.9389
2412.39	90.7221
2403.07	66.1584
2393.72	55.5959
2384.36	79.752
2374.98	48.4431
2365.57	89.7774
2356.15	99.9264
2346.71	55.0162
2337.25	89.2136
2327.76	78.7539
2318.26	126.425
2308.74	129.568
2299.2	74.8554
2289.63	84.8837
2280.05	115.198
2270.45	71.0018
2260.82	97.8431
2251.18	97.6363
2241.52	104.149
2231.83	113.986
2222.13	76.945
2212.4	123.519
2202.65	129.919
2192.89	136.292
2183.1	109.465
2173.29	66.2014
2163.46	122.212
2153.61	98.8798
2143.74	131.559
2133.84	121.432
2123.93	127.723
2114	127.45
2104.04	117.395
2094.06	113.889
2084.06	136.375
2074.04	116.642
2064	119.625
2053.93	132.273
2043.85	131.989
2033.74	144.554
2023.61	131.422
2013.46	150.33
2003.29	162.772
1993.09	162.421
1982.88	171.604
1972.64	149.037
1962.38	193.012
1952.09	176.808
1941.79	207.93
1931.46	226.341
1921.11	178.798
1910.74	256.66
1900.34	246.733
1889.92	215.032
1879.48	227.003
1869.02	263.743
1858.53	284.841
1848.02	262.594
1837.49	289.764
1826.94	304.511
1816.36	279.292
1805.75	306.242
1795.13	311.683
1784.48	298.804
1773.81	319.445
1763.11	412.848
1752.4	402.854
1741.65	353.611
1730.89	401.083
1720.1	382.146
1709.28	441.351
1698.45	419.407
1687.58	427.448
1676.7	521.944
1665.79	541.621
1654.85	513.698
1643.9	494.783
1632.91	552.81
1621.91	460.144
1610.88	488.552
1599.82	408.179
1588.74	421.921
1577.63	458.987
1566.5	536.722
1555.35	480.225
1544.17	496.577
1532.96	573.699
1521.73	555.069
1510.48	565.365
1499.2	581.366
1487.89	623.136
1476.56	679.041
1465.2	1077.74
1453.82	1078.16
1442.41	1266.41
1430.98	973.934
1419.52	915.077
1408.03	788.639
1396.52	651.485
1384.98	706.29
1373.42	842.261
1361.83	773.126
1350.21	793.732
1338.57	772.412
1326.9	806.827
1315.2	849.407
1303.48	1038.57
1291.73	1014.1
1279.96	771.939
1268.15	627.145
1256.32	551.616
1244.47	585.951
1232.58	519.047
1220.67	504.231
1208.73	484.041
1196.77	455.8
1184.77	519.719
1172.75	523.926
1160.7	476.916
1148.62	508.078
1136.52	598.097
1124.39	741.215
1112.23	563.305
1100.04	716.488
1087.82	531.474
1075.57	527.593
1063.3	1116.22
1051	514.595
1038.67	466.01
1026.31	449.167
1013.92	390.47
1001.5	436.622
989.056	383.437
976.581	403.362
964.076	433.576
951.542	437.744
938.979	397.958
926.387	381.558
913.765	486.119
901.113	587.621
888.431	540.162
875.72	469.935
862.979	491.762
850.207	449.933
837.406	436.193
824.574	407.334
811.712	396.277
798.819	418.004
785.896	419.527
772.943	375.929
759.958	435.045
746.943	421.541
733.897	408.099
720.819	454.297
707.711	406.161
694.571	417.548
681.4	421.482
668.198	452.443
654.963	436.645
641.698	408.682
628.4	393.056
615.07	414.035
601.709	488.362
588.315	477.495
574.889	517.454
561.431	458.318
547.94	476.466
534.417	508.927
520.861	490.936
507.273	532.754
493.651	526.7
479.996	496.897
466.309	509.924
452.588	565.473
438.834	604.226
425.046	572.15
411.225	605.991
397.37	632.634
383.481	708.227
369.558	694.843
355.601	674.539
341.61	728.579
327.585	733.742
313.526	761.962
299.431	741.669
285.303	778.911
271.139	889.308
256.941	818.53
242.708	905.467
228.439	905.512
214.135	978.175
199.796	1039.15
185.422	1086.27
171.011	1261.55
156.565	1307.87
142.084	1336.01
127.566	1493.69
113.012	1670.66
100.669	1457.91

File: 20191004 Set3Sample3_9 5_.txt
3201.26	42.1129
3193.54	46.2402
3185.8	25.1724
3178.05	20.9358
3170.28	37.6104
3162.49	37.5364
3154.69	54.1126
3146.87	49.8517
3139.04	0
3131.19	41.3795
3123.33	28.9085
3115.45	61.8245
3107.56	28.7944
3099.65	53.3697
3091.73	28.6807
3083.79	32.713
3075.83	53.0534
3067.86	28.5106
3059.87	20.3244
3051.87	8.11361
3043.85	24.2925
3035.81	40.4071
3027.76	20.1634
3019.69	20.1233
3011.61	20.0832
3003.51	20.0432
2995.39	24.004
2987.26	27.9488
2979.11	43.8319
2970.94	47.7211
2962.76	63.501
2954.57	99.0219
2946.35	59.2943
2938.12	67.0657
2929.87	110.24
2921.61	74.6557
2913.33	109.798
2905.03	133.059
2896.72	121.075
2888.39	175.4
2880.04	194.497
2871.68	186.342
2863.3	244.081
2854.9	177.859
2846.48	185.218
2838.05	73.1674
2829.6	61.4902
2821.14	46.0245
2812.66	72.7248
2804.15	53.4783
2795.64	26.685
2787.1	22.8265
2778.55	37.9671
2769.98	11.367
2761.39	34.0318
2752.79	30.1891
2744.17	41.4256
2735.53	90.1992
2726.87	82.5143
2718.2	63.6312
2709.5	59.7661
2700.79	33.5499
2692.07	37.2015
2683.32	22.2753
2674.56	51.8695
2665.78	51.7635
2656.98	66.4168
2648.16	11.0468
2639.32	14.6989
2630.47	7.33436
2621.6	40.2562
2612.71	65.7384
2603.8	47.3802
2594.87	50.9199
2585.92	25.4075
2576.96	47.0882
2567.98	18.0735
2558.98	57.716
2549.96	17.999
2540.92	35.9237
2531.86	71.6988
2522.79	35.7752
2513.69	64.2621
2504.58	46.3154
2495.45	49.7747
2486.29	56.7674
2477.12	63.7307
2467.93	81.2645
2458.73	38.7848
2449.5	45.7412
2440.25	31.6011
2430.98	35.0391
2421.7	41.9593
2412.39	55.829
2403.07	55.7124
2393.72	52.1212
2384.36	62.4146
2374.98	51.9033
2365.57	37.9827
2356.15	62.0233
2346.71	37.8236
2337.25	44.6068
2327.76	58.2094
2318.26	51.2533
2308.74	68.1939
2299.2	51.0378
2289.63	61.1163
2280.05	67.7638
2270.45	33.8104
2260.82	64.1041
2251.18	60.6018
2241.52	47.0351
2231.83	53.6406
2222.13	50.1815
2212.4	80.1202
2202.65	83.2815
2192.89	63.1596
2183.1	92.8795
2173.29	72.8216
2163.46	62.7575
2153.61	52.7359
2143.74	85.5132
2133.84	78.7669
2123.93	78.5987
2114	84.9667
2104.04	58.6973
2094.06	100.874
2084.06	77.9284
2074.04	84.2415
2064	74.3615
2053.93	90.3328
2043.85	96.5772
2033.74	118.856
2023.61	92.9568
2013.46	99.1537
2003.29	121.281
1993.09	108.281
1982.88	101.691
1972.64	107.814
1962.38	148.714
1952.09	129.449
1941.79	148.071
1931.46	157.181
1921.11	138.02
1910.74	156.5
1900.34	187.392
1889.92	208.8
1879.48	177.249
1869.02	245.126
1858.53	179.574
1848.02	182.271
1837.49	206.534
1826.94	187.628
1816.36	242.462
1805.75	235.807
1795.13	235.29
1784.48	280.51
1773.81	240.344
1763.11	309.636
1752.4	281.695
1741.65	259.919
1730.89	283.473
1720.1	273.821
1709.28	342.272
1698.45	299.576
1687.58	304.893
1676.7	325.097
1665.79	336.281
1654.85	365.23
1643.9	349.607
1632.91	393.175
1621.91	374.604
1610.88	382.601
1599.82	334.766
1588.74	407.271
1577.63	406.364
1566.5	408.375
1555.35	395.822
1544.17	409.458
1532.96	472.287
1521.73	416.302
1510.48	403.832
1499.2	425.952
1487.89	479.557
1476.56	458.424
1465.2	588.895
1453.82	633.208
1442.41	694.392
1430.98	567.891
1419.52	526.948
1408.03	531.413
1396.52	516.111
1384.98	526.2
1373.42	510.972
1361.83	568.64
1350.21	667.965
1338.57	605.103
1326.9	581.472
1315.2	555.168
1303.48	645.3
1291.73	627.251
1279.96	476.948
1268.15	451.105
1256.32	406.165
1244.47	388.809
1232.58	382.456
1220.67	348.874
1208.73	310.004
1196.77	339.137
1184.77	357.307
1172.75	345.683
1160.7	336.805
1148.62	287.642
1136.52	335.256
1124.39	339.835
1112.23	331.042
1100.04	348.922
1087.82	273.709
1075.57	304.89
1063.3	375.601
1051	237.505
1038.67	244.853
1026.31	244.284
1013.92	230.613
1001.5	224.847
989.056	234.757
976.581	171.754
964.076	218.086
951.542	246.069
938.979	214.484
926.387	188.201
913.765	208.337
901.113	228.377
888.431	263.681
875.72	247.737
862.979	229.319
850.207	254.199
837.406	248.529
824.574	222.642
811.712	209.497
798.819	214.038
785.896	253.726
772.943	220.545
759.958	252.526
746.943	241.95
733.897	233.91
720.819	248.25
707.711	252.612
694.571	252.011
681.4	268.664
668.198	275.4
654.963	247.759
641.698	239.825
628.4	231.928
615.07	265.469
601.709	281.841
588.315	264.198
574.889	282.907
561.431	301.525
547.94	283.955
534.417	302.475
520.861	294.562
507.273	281.906
493.651	285.991
479.996	287.677
466.309	308.326
452.588	288.651
438.834	330.436
425.046	324.925
411.225	380.506
397.37	433.472
383.481	402.03
369.558	410.377
355.601	418.679
341.61	403.735
327.585	374.972
313.526	438.706
299.431	426.114
285.303	434.26
271.139	446.946
256.941	473.284
242.708	483.524
228.439	518.736
214.135	533.344
199.796	493.541
185.422	528.455
171.011	592.479
156.565	620.226
142.084	708.354
127.566	751.319
113.012	847.596
100.669	705.586