Folder: Spicy-Raman_New/Spicy-Raman/model_train_and_validate/Raman_Data/polyethylene (part 2)

File: 20191004 Set3Sample3_11 5_.txt
3201.26	16.8451
3193.54	58.8512
3185.8	50.3449
3178.05	54.4331
3170.28	54.3261
3162.49	12.5121
3154.69	12.4875
3146.87	24.9258
3139.04	12.4384
3131.19	57.9313
3123.33	74.3361
3115.45	8.24326
3107.56	53.4754
3099.65	24.6321
3091.73	49.1669
3083.79	36.8022
3075.83	32.6483
3067.86	48.8754
3059.87	48.7784
3051.87	24.3408
3043.85	40.4875
3035.81	52.5292
3027.76	36.2941
3019.69	20.1233
3011.61	12.0499
3003.51	36.0778
2995.39	20.0033
2987.26	39.9268
2979.11	31.8777
2970.94	27.8373
2962.76	47.6257
2954.57	43.5697
2946.35	106.73
2938.12	55.2306
2929.87	114.177
2921.61	82.5142
2913.33	117.641
2905.03	152.626
2896.72	101.547
2888.39	93.5469
2880.04	147.818
2871.68	108.699
2863.3	182.092
2854.9	146.927
2846.48	104.185
2838.05	88.571
2829.6	57.6471
2821.14	23.0122
2812.66	30.621
2804.15	34.3789
2795.64	64.8064
2787.1	11.4133
2778.55	53.1539
2769.98	34.101
2761.39	37.8131
2752.79	41.51
2744.17	52.7235
2735.53	37.583
2726.87	45.0078
2718.2	63.6312
2709.5	63.5015
2700.79	59.6442
2692.07	22.3209
2683.32	44.5507
2674.56	37.0497
2665.78	66.553
2656.98	36.8982
2648.16	33.1404
2639.32	14.6989
2630.47	40.339
2621.6	51.2351
2612.71	25.5649
2603.8	47.3802
2594.87	50.9199
2585.92	32.6668
2576.96	61.5769
2567.98	54.2206
2558.98	61.3232
2549.96	25.1986
2540.92	39.516
2531.86	17.9247
2522.79	60.8179
2513.69	35.7012
2504.58	14.2509
2495.45	46.2194
2486.29	42.5755
2477.12	42.4871
2467.93	38.8656
2458.73	35.2589
2449.5	59.8154
2440.25	49.1572
2430.98	66.5744
2421.7	69.9321
2412.39	45.361
2403.07	59.1944
2393.72	48.6465
2384.36	69.3496
2374.98	62.284
2365.57	55.2476
2356.15	37.9031
2346.71	51.5777
2337.25	48.0381
2327.76	58.2094
2318.26	44.4195
2308.74	37.5067
2299.2	61.2453
2289.63	57.7209
2280.05	57.5992
2270.45	57.4777
2260.82	60.7302
2251.18	57.2351
2241.52	73.9122
2231.83	63.6982
2222.13	90.3267
2212.4	90.1353
2202.65	56.6314
2192.89	73.1321
2183.1	76.2939
2173.29	66.2014
2163.46	89.1817
2153.61	56.0319
2143.74	82.2242
2133.84	88.6127
2123.93	85.1486
2114	98.0385
2104.04	68.4802
2094.06	87.8576
2084.06	61.6933
2074.04	103.682
2064	106.693
2053.93	90.3328
2043.85	90.1387
2033.74	109.219
2023.61	102.573
2013.46	105.551
2003.29	111.706
1993.09	85.9877
1982.88	111.225
1972.64	123.669
1962.38	117.073
1952.09	145.235
1941.79	132.319
1931.46	119.458
1921.11	194.482
1910.74	178.41
1900.34	165.53
1889.92	208.8
1879.48	152.372
1869.02	220.303
1858.53	213.631
1848.02	244.058
1837.49	231.195
1826.94	221.462
1816.36	239.393
1805.75	241.931
1795.13	265.847
1784.48	225.627
1773.81	273.81
1763.11	333.921
1752.4	272.608
1741.65	284.098
1730.89	280.457
1720.1	315.947
1709.28	276.22
1698.45	335.525
1687.58	424.459
1676.7	378.782
1665.79	369.017
1654.85	383.046
1643.9	423.676
1632.91	372.481
1621.91	362.806
1610.88	388.487
1599.82	352.385
1588.74	410.201
1577.63	374.206
1566.5	393.79
1555.35	424.927
1544.17	438.498
1532.96	434.62
1521.73	450.994
1510.48	435.562
1499.2	474.878
1487.89	468.07
1476.56	475.615
1465.2	600.33
1453.82	604.685
1442.41	734.234
1430.98	573.57
1419.52	555.279
1408.03	508.799
1396.52	558.415
1384.98	590.92
1373.42	598.006
1361.83	649.874
1350.21	648.401
1338.57	621.834
1326.9	664.937
1315.2	646.771
1303.48	628.682
1291.73	591.329
1279.96	570.683
1268.15	489.613
1256.32	450.075
1244.47	443.57
1232.58	371.529
1220.67	414.287
1208.73	364.39
1196.77	355.416
1184.77	365.427
1172.75	340.282
1160.7	347.583
1148.62	354.848
1136.52	359.395
1124.39	369.27
1112.23	325.702
1100.04	348.922
1087.82	321.542
1075.57	294.285
1063.3	380.891
1051	290.284
1038.67	279.079
1026.31	239.03
1013.92	248.957
1001.5	253.607
989.056	253.016
976.581	242.017
964.076	241.452
951.542	246.069
938.979	211.9
926.387	244.919
913.765	277.782
901.113	264.301
888.431	286.721
875.72	301.371
862.979	346.527
850.207	315.207
837.406	301.785
824.574	258.063
811.712	275.122
798.819	279.508
785.896	263.775
772.943	210.52
759.958	255.026
746.943	264.399
733.897	256.306
720.819	245.767
707.711	279.855
694.571	303.896
681.4	285.918
668.198	277.859
654.963	252.665
641.698	283.875
628.4	332.023
615.07	284.953
601.709	330.434
588.315	339.336
574.889	302.251
561.431	347.357
547.94	346.521
534.417	336.084
520.861	359.222
507.273	332.075
493.651	326.507
479.996	373.267
466.309	343.903
452.588	376.193
438.834	380.001
425.046	426.169
411.225	415.738
397.37	414.727
383.481	479.164
369.558	433.694
355.601	481.481
341.61	429.258
327.585	486.075
313.526	480.267
299.431	479.091
285.303	503.19
271.139	543.211
256.941	521.299
242.708	586.159
228.439	623.393
214.135	603.7
199.796	704.088
185.422	618.79
171.011	678.084
156.565	694.383
142.084	744.22
127.566	834.053
113.012	979.196
100.669	821.329

File: Set5Sample2_1 - 5_.txt
3201.19	21.056
3193.47	50.4429
3185.73	-8.39065
3177.97	20.9354
3170.2	25.0731
3162.42	-4.17063
3154.61	29.137
3146.8	37.3881
3138.97	29.0223
3131.12	20.6893
3123.26	8.25941
3115.38	49.4586
3107.48	45.2475
3099.58	16.4211
3091.65	20.4858
3083.71	4.08905
3075.75	16.3238
3067.78	32.583
3059.79	28.4536
3051.79	36.5106
3043.77	36.4381
3035.73	-4.04063
3027.68	32.2608
3019.61	36.2212
3011.53	32.1326
3003.43	56.12
2995.31	52.0076
2987.18	59.8891
2979.03	39.8464
2970.87	83.5103
2962.68	71.4373
2954.49	106.942
2946.27	75.1047
2938.04	106.514
2929.79	94.4895
2921.53	102.158
2913.25	113.717
2904.95	160.45
2896.64	117.167
2888.31	155.908
2879.96	128.366
2871.6	112.579
2863.22	120.101
2854.82	119.859
2846.4	115.759
2837.97	111.674
2829.52	80.7044
2821.06	42.1883
2812.57	30.6204
2804.07	38.198
2795.56	41.9328
2787.02	34.2391
2778.47	60.7461
2769.9	53.045
2761.31	22.6874
2752.71	52.8298
2744.09	45.1907
2735.45	41.3405
2726.79	45.0069
2718.11	52.4011
2709.42	41.0884
2700.71	55.9154
2691.98	40.9209
2683.24	48.2623
2674.47	55.5734
2665.69	29.5785
2656.89	81.1745
2648.07	69.9616
2639.24	40.4211
2630.38	51.3395
2621.51	21.9575
2612.62	43.8248
2603.71	40.0901
2594.78	54.5559
2585.84	50.814
2576.87	61.5757
2567.89	57.8341
2558.89	46.8933
2549.87	53.996
2540.83	50.2921
2531.77	46.6033
2522.7	60.8167
2513.6	78.541
2504.49	46.3145
2495.36	85.3264
2486.21	74.5057
2477.04	70.8105
2467.85	52.9975
2458.64	63.4648
2449.41	80.9252
2440.16	84.2678
2430.89	84.0922
2421.61	87.4134
2412.3	59.3171
2402.98	76.603
2393.63	69.4936
2384.27	55.4786
2374.89	93.4242
2365.48	62.1523
2356.06	106.816
2346.62	89.3995
2337.15	68.6245
2327.67	109.568
2318.17	99.0877
2308.65	109.108
2299.1	115.683
2289.54	118.835
2279.96	98.2555
2270.36	98.0482
2260.73	114.71
2251.09	90.9009
2241.42	104.147
2231.74	93.8691
2222.03	123.779
2212.31	70.1038
2202.56	103.267
2192.79	106.372
2183	106.146
2173.2	152.26
2163.37	122.21
2153.51	108.766
2143.64	124.978
2133.75	147.685
2123.84	134.27
2113.9	130.715
2103.94	153.262
2093.97	146.426
2083.97	146.113
2073.94	142.56
2063.9	122.856
2053.84	170.984
2043.75	189.931
2033.64	154.188
2023.52	157.062
2013.36	140.731
2003.19	143.62
1993	156.049
1982.78	190.667
1972.54	190.256
1962.28	186.68
1952	202.062
1941.69	192.174
1931.36	242.054
1921.01	207.025
1910.64	222.225
1900.24	237.358
1889.82	208.795
1879.38	230.108
1868.92	207.887
1858.43	263.163
1847.92	262.589
1837.39	274.346
1826.83	279.898
1816.25	297.7
1805.65	272.55
1795.03	296.398
1784.38	289.651
1773.71	322.48
1763.01	324.808
1752.29	354.383
1741.55	335.47
1730.78	322.669
1719.99	355.057
1709.18	363.281
1698.34	407.415
1687.48	403.526
1676.59	468.249
1665.68	473.165
1654.75	495.871
1643.79	479.959
1632.81	410.903
1621.8	356.899
1610.77	453.226
1599.71	402.298
1588.63	436.562
1577.53	447.283
1566.4	440.452
1555.24	451.111
1544.06	467.527
1532.86	437.508
1521.62	479.894
1510.37	513.433
1499.09	477.746
1487.78	508.262
1476.45	561.558
1465.09	648.914
1453.71	710.204
1442.3	793.98
1430.87	641.703
1419.41	657.255
1407.92	593.586
1396.41	600.707
1384.87	664.067
1373.31	724.329
1361.72	675.07
1350.1	718.256
1338.46	669.224
1326.79	600.934
1315.09	693.945
1303.37	708.983
1291.62	983.685
1279.84	923.55
1268.04	629.882
1256.21	620.212
1244.35	550.344
1232.47	535.427
1220.56	526.025
1208.62	532.977
1196.65	496.486
1184.66	511.587
1172.63	545.52
1160.59	614.319
1148.51	572.583
1136.4	640.996
1124.27	663.6
1112.11	622.025
1099.92	591.29
1087.7	605.867
1075.46	620.372
1063.18	685.06
1050.88	519.861
1038.55	576.576
1026.19	499.064
1013.8	497.903
1001.38	530.733
988.937	537.322
976.461	562.092
963.956	506.26
951.422	512.848
938.859	540.074
926.266	507.874
913.644	552.98
900.991	590.173
888.31	624.628
875.598	674.239
862.856	713.421
850.085	826.13
837.283	704.994
824.451	564.183
811.589	509.848
798.696	523.752
785.773	542.61
772.819	513.758
759.834	492.54
746.818	516.314
733.772	567.344
720.694	575.926
707.585	614.181
694.445	590.483
681.274	606.329
668.071	570.459
654.837	657.405
641.57	660.728
628.272	627.411
614.943	686.795
601.581	643.845
588.187	647.148
574.761	691.535
561.302	656.103
547.811	705.057
534.288	643.346
520.731	677.716
507.142	699.97
493.52	622.016
479.866	630.022
466.178	675.931
452.456	716.88
438.702	696.26
424.914	722.823
411.092	725.764
397.237	784.917
383.348	717.56
369.425	788.092
355.468	755.931
341.476	754.085
327.451	768.443
313.391	759.636
299.296	750.865
285.167	820.25
271.004	859.491
256.805	871.097
242.571	1005.8
228.302	978.295
213.998	1132.48
199.659	1150.06
185.284	1059.14
170.873	1135.37
156.427	1256.15
141.945	1481.68
127.427	1802.23
112.873	2223.77
100.529	2014.32

File: Set5Sample2_2 - 5_.txt
3201.19	16.8448
3193.47	16.8143
3185.73	4.19533
3177.97	20.9354
3170.2	29.252
3162.42	41.7063
3154.61	0
3146.8	29.0796
3138.97	8.29209
3131.12	8.27574
3123.26	37.1673
3115.38	41.2155
3107.48	0
3099.58	45.1581
3091.65	20.4858
3083.71	16.3562
3075.75	-4.08096
3067.78	4.07287
3059.79	-4.06479
3051.79	4.05673
3043.77	4.04868
3035.73	16.1625
3027.68	20.163
3019.61	16.0983
3011.53	24.0994
3003.43	36.0771
2995.31	48.007
2987.18	27.9482
2979.03	103.601
2970.87	111.347
2962.68	91.2809
2954.49	71.2944
2946.27	122.539
2938.04	185.413
2929.79	173.231
2921.53	157.167
2913.25	180.379
2904.95	203.498
2896.64	206.995
2888.31	167.602
2879.96	256.732
2871.6	190.22
2863.22	232.454
2854.82	235.852
2846.4	223.8
2837.97	80.8676
2829.52	46.1168
2821.06	34.5177
2812.57	38.2755
2804.07	30.5584
2795.56	38.1207
2787.02	45.6522
2778.47	34.1697
2769.9	41.6783
2761.31	34.0312
2752.71	49.0563
2744.09	37.6589
2735.45	52.6152
2726.79	52.5081
2718.11	63.63
2709.42	59.765
2700.71	48.46
2691.98	29.7607
2683.24	37.1248
2674.47	62.9832
2665.69	36.9732
2656.89	33.2077
2648.07	44.1863
2639.24	18.3732
2630.38	62.3408
2621.51	21.9575
2612.62	43.8248
2603.71	54.6684
2594.78	7.27412
2585.84	36.2957
2576.87	18.1105
2567.89	39.761
2558.89	21.6431
2549.87	43.1968
2540.83	39.5152
2531.77	35.8487
2522.7	57.2392
2513.6	57.1208
2504.49	32.0639
2495.36	14.2211
2486.21	49.6705
2477.04	42.4863
2467.85	45.9312
2458.64	66.9906
2449.41	49.2588
2440.16	42.1339
2430.89	59.5653
2421.61	45.455
2412.3	62.8063
2402.98	59.1932
2393.63	52.1202
2384.27	48.5438
2374.89	48.4422
2365.48	48.3407
2356.06	48.2394
2346.62	48.1382
2337.15	51.4684
2327.67	41.0882
2318.17	61.5027
2308.65	54.5541
2299.1	40.8294
2289.54	57.7198
2279.96	30.4931
2270.36	84.5243
2260.73	94.4673
2251.09	57.2339
2241.42	67.1916
2231.74	83.8117
2222.03	76.9434
2212.31	56.7507
2202.56	76.6174
2192.79	69.8065
2183	79.6094
2173.2	46.3401
2163.37	52.8474
2153.51	72.5104
2143.64	72.3558
2133.75	62.3558
2123.84	62.2227
2113.9	81.6971
2103.94	61.957
2093.97	65.0784
2083.97	81.1738
2073.94	55.0799
2063.9	77.5931
2053.84	77.4265
2043.75	64.3835
2033.64	77.0941
2023.52	80.1336
2013.36	99.1517
2003.19	63.831
1993	121.017
1982.78	127.112
1972.54	85.615
1962.28	129.727
1952	135.761
1941.69	103.963
1931.36	135.173
1921.01	159.974
1910.64	134.587
1900.24	146.787
1889.82	134.003
1879.38	136.821
1868.92	170.654
1858.43	182.666
1847.92	151.375
1837.39	147.962
1826.83	178.396
1816.25	202.559
1805.65	143.931
1795.03	192.506
1784.38	228.672
1773.71	185.578
1763.01	230.705
1752.29	236.255
1741.55	229.691
1730.78	241.248
1719.99	225.672
1709.18	246.191
1698.34	245.647
1687.48	257.061
1676.59	342.985
1665.68	419.599
1654.75	359.284
1643.79	361.451
1632.81	313.351
1621.8	303.806
1610.77	294.302
1599.71	270.156
1588.63	275.415
1577.53	315.729
1566.4	271.272
1555.24	276.488
1544.06	316.525
1532.86	315.817
1521.62	306.438
1510.37	343.25
1499.09	328.091
1487.78	361.813
1476.45	424.033
1465.09	617.469
1453.71	661.716
1442.3	816.746
1430.87	616.149
1419.41	473.11
1407.92	432.47
1396.41	423.033
1384.87	506.492
1373.31	631.682
1361.72	602.241
1350.1	572.928
1338.46	552.11
1326.79	556.42
1315.09	591.241
1303.37	648.055
1291.62	804.08
1279.84	716.785
1268.04	473.099
1256.21	425.366
1244.35	432.609
1232.47	363.325
1220.56	367.945
1208.62	364.382
1196.65	344.556
1184.66	362.713
1172.63	421.292
1160.59	420.324
1148.51	438.174
1136.4	455.938
1124.27	527.134
1112.11	475.195
1099.92	444.799
1087.7	446.428
1075.46	487.814
1063.18	611
1050.88	427.5
1038.55	402.813
1026.19	351.971
1013.8	369.497
1001.38	371.251
988.937	378.212
976.461	340.898
963.956	332.314
951.422	341.899
938.859	338.515
926.266	371.238
913.644	414.092
900.991	418.253
888.31	468.471
875.598	487.802
862.856	537.614
850.085	589.729
837.283	484.366
824.451	427.565
811.589	302.88
798.696	319.791
785.773	278.841
772.819	305.749
759.834	287.523
746.818	359.175
733.772	360.811
720.694	312.787
707.585	401.199
694.445	382.949
681.274	347.53
668.071	349.16
654.837	385.122
641.57	418.461
628.272	458.962
614.943	416.461
601.581	432.47
588.187	404.771
574.761	427.978
561.302	455.895
547.811	397.046
534.288	408.092
520.731	431.056
507.142	430.016
493.52	400.378
479.866	439.827
466.178	474.337
452.456	499.213
438.702	533.406
424.914	437.932
411.092	556.654
397.237	515.468
383.348	521.225
369.425	498.969
355.468	474.492
341.476	533.66
327.451	541.614
313.391	591.084
299.296	550.481
285.167	611.166
271.004	616.542
256.805	690.476
242.571	768.603
228.302	853.164
213.998	887.373
199.659	878.391
185.284	873.963
170.873	975.427
156.427	1119.08
141.945	1297.87
127.427	1739.62
112.873	2179.16
100.529	2036.58

File: Set5Sample2_3 - 5_.txt
3201.19	25.2672
3193.47	21.0179
3185.73	37.7579
3177.97	16.7483
3170.2	37.6097
3162.42	25.0238
3154.61	33.2994
3146.8	49.8508
3138.97	41.4604
3131.12	41.3787
3123.26	8.25941
3115.38	16.4862
3107.48	53.4743
3099.58	57.4739
3091.65	32.7773
3083.71	40.8905
3075.75	44.8905
3067.78	36.6558
3059.79	24.3888
3051.79	52.7375
3043.77	56.6815
3035.73	36.3657
3027.68	80.652
3019.61	64.3933
3011.53	52.2154
3003.43	56.12
2995.31	88.0128
2987.18	87.8373
2979.03	107.585
2970.87	103.394
2962.68	138.906
2954.49	126.746
2946.27	166.021
2938.04	149.909
2929.79	216.538
2921.53	165.025
2913.25	219.592
2904.95	242.632
2896.64	242.145
2888.31	288.431
2879.96	268.401
2871.6	221.277
2863.22	209.208
2854.82	216.52
2846.4	208.366
2837.97	142.481
2829.52	119.135
2821.06	99.7178
2812.57	118.654
2804.07	99.3149
2795.56	76.2414
2787.02	114.13
2778.47	121.492
2769.9	136.402
2761.31	128.562
2752.71	105.66
2744.09	112.977
2735.45	157.846
2726.79	112.517
2718.11	145.975
2709.42	104.589
2700.71	134.197
2691.98	163.684
2683.24	155.924
2674.47	137.081
2665.69	166.379
2656.89	147.59
2648.07	158.334
2639.24	150.66
2630.38	187.022
2621.51	153.702
2612.62	149.735
2603.71	153.071
2594.78	145.482
2585.84	177.849
2576.87	195.593
2567.89	202.419
2558.89	216.431
2549.87	201.585
2540.83	190.392
2531.77	215.092
2522.7	189.605
2513.6	217.773
2504.49	228.01
2495.36	223.982
2486.21	237.709
2477.04	237.215
2467.85	233.189
2458.64	215.075
2449.41	246.294
2440.16	224.714
2430.89	259.284
2421.61	258.744
2412.3	272.161
2402.98	250.701
2393.63	284.924
2384.27	260.056
2374.89	294.113
2365.48	272.78
2356.06	296.328
2346.62	288.829
2337.15	332.829
2327.67	332.129
2318.17	362.183
2308.65	337.553
2299.1	330.038
2289.54	342.923
2279.96	332.036
2270.36	331.335
2260.73	381.243
2251.09	390.537
2241.42	346.037
2231.74	439.173
2222.03	347.918
2212.31	433.976
2202.56	429.724
2192.79	412.191
2183	417.949
2173.2	423.681
2163.37	422.779
2153.51	441.654
2143.64	457.157
2133.75	492.283
2123.84	484.682
2113.9	499.986
2103.94	502.178
2093.97	491.342
2083.97	506.524
2073.94	508.679
2063.9	552.851
2053.84	535.533
2043.75	531.164
2033.64	581.418
2023.52	548.114
2013.36	623.696
2003.19	625.543
1993	652.856
1982.78	651.447
1972.54	684.92
1962.28	670.783
1952	726.162
1941.69	658.431
1931.36	713.589
1921.01	712.041
1910.64	776.224
1900.24	812.016
1889.82	779.087
1879.38	758.734
1868.92	874.988
1858.43	863.793
1847.92	849.552
1837.39	844.615
1826.83	925.816
1816.25	902.308
1805.65	949.331
1795.03	993.087
1784.38	926.882
1773.71	976.567
1763.01	922.818
1752.29	1048
1741.55	1103.12
1730.78	1064.51
1719.99	1071.19
1709.18	1065.83
1698.34	1201.28
1687.48	1219.55
1676.59	1210.89
1665.68	1249.87
1654.75	1327.27
1643.79	1297.67
1632.81	1285.92
1621.8	1286.02
1610.77	1412.65
1599.71	1394.83
1588.63	1333.13
1577.53	1309.69
1566.4	1353.44
1555.24	1362.07
1544.06	1451.95
1532.86	1460.29
1521.62	1326.93
1510.37	1422.04
1499.09	1433.24
1487.78	1467.35
1476.45	1661.75
1465.09	1786.66
1453.71	1839.69
1442.3	1957.91
1430.87	1695.12
1419.41	1609.14
1407.92	1594.2
1396.41	1613.17
1384.87	1772.72
1373.31	1911.89
1361.72	1792.72
1350.1	1880.88
1338.46	1985.36
1326.79	1825.06
1315.09	1931.94
1303.37	1963.55
1291.62	2019.87
1279.84	1927.05
1268.04	1776.87
1256.21	1833.19
1244.35	1719.48
1232.47	1753.8
1220.56	1714.35
1208.62	1680.51
1196.65	1673.94
1184.66	1781.08
1172.63	1712.18
1160.59	1708.24
1148.51	1793.02
1136.4	1906.9
1124.27	1824.9
1112.11	1834.04
1099.92	1978.96
1087.7	1865.43
1075.46	1877.02
1063.18	1970.54
1050.88	1781.25
1038.55	1885.06
1026.19	1770.36
1013.8	1789.83
1001.38	1762.14
988.937	1784.12
976.461	1756.54
963.956	1760.23
951.422	1784.61
938.859	1863.13
926.266	1830.41
913.644	1949.58
900.991	1896.25
888.31	1948.12
875.598	1925.67
862.856	2112.24
850.085	2142.85
837.283	2033.83
824.451	1963.26
811.589	1903.1
798.696	1966.59
785.773	1954.4
772.819	1982.36
759.834	1987.66
746.818	2112.65
733.772	2062.84
720.694	2105.11
707.585	2107.53
694.445	2065.46
681.274	2099.97
668.071	2163.81
654.837	2087.51
641.57	2124.12
628.272	2255.75
614.943	2245.48
601.581	2300.84
588.187	2331.67
574.761	2372.01
561.302	2438.68
547.811	2425.59
534.288	2458.16
520.731	2425.89
507.142	2463.03
493.52	2457.08
479.866	2451.14
466.178	2478.41
452.456	2628.56
438.702	2683.55
424.914	2573.44
411.092	2672.88
397.237	2696.83
383.348	2744.03
369.425	2723.35
355.468	2739.96
341.476	2788.95
327.451	2812.23
313.391	2754.55
299.296	2731.67
285.167	2805.39
271.004	2837.47
256.805	2940.24
242.571	2958.09
228.302	2943.98
213.998	3050.2
199.659	3246.43
185.284	3066.78
170.873	3158.31
156.427	3366.22
141.945	3465.47
127.427	3807.93
112.873	4043.83
100.529	3300.82

File: Set7Sample6_1 - 5_.txt
3201.15	12.6335
3193.43	25.2212
3185.69	41.9529
3177.94	0
3170.17	4.17882
3162.38	20.853
3154.58	20.8119
3146.76	41.5419
3138.93	16.584
3131.08	12.4135
3123.22	16.5187
3115.34	24.7291
3107.45	24.6802
3099.54	16.421
3091.61	36.8741
3083.67	0
3075.72	24.4855
3067.74	36.6555
3059.76	32.5181
3051.75	20.2835
3043.73	16.1946
3035.7	8.08119
3027.64	24.1954
3019.58	28.1718
3011.49	32.1323
3003.39	48.1024
2995.28	8.00109
2987.14	43.9183
2978.99	67.7382
2970.83	59.6497
2962.65	67.4679
2954.45	63.3723
2946.23	55.3398
2938	71.0087
2929.76	66.9295
2921.49	66.7953
2913.21	50.9763
2904.92	39.1338
2896.6	74.205
2888.27	50.6698
2879.92	58.3476
2871.56	27.1741
2863.18	61.9871
2854.78	50.263
2846.37	30.8687
2837.93	46.2097
2829.48	23.0582
2821.02	34.5174
2812.53	38.2751
2804.03	0
2795.52	38.1203
2786.98	15.2172
2778.43	18.983
2769.86	30.3112
2761.27	26.4684
2752.67	18.8676
2744.05	18.8293
2735.41	18.791
2726.75	30.0044
2718.07	22.4574
2709.38	22.4117
2700.67	11.183
2691.94	29.7604
2683.2	14.8498
2674.43	-7.40972
2665.65	25.881
2656.85	7.37943
2648.03	22.0929
2639.2	25.7223
2630.34	22.0024
2621.47	14.6382
2612.58	21.9122
2603.67	25.5117
2594.74	36.3703
2585.8	10.8886
2576.83	14.4883
2567.85	25.3022
2558.85	32.4643
2549.83	21.5982
2540.79	35.9226
2531.73	14.3393
2522.66	-3.57742
2513.56	17.8501
2504.45	17.8131
2495.32	35.5523
2486.16	24.835
2476.99	17.7025
2467.8	42.3976
2458.59	10.5774
2449.37	52.7768
2440.12	31.6001
2430.85	38.5419
2421.57	34.965
2412.26	27.9137
2402.94	48.7469
2393.59	24.3225
2384.23	24.2716
2374.84	48.4417
2365.44	24.1701
2356.02	31.0107
2346.57	24.0689
2337.11	27.4495
2327.63	23.9679
2318.13	34.1678
2308.6	57.9631
2299.06	27.2193
2289.5	16.9762
2279.92	44.0452
2270.31	27.0475
2260.69	26.9904
2251.04	43.7667
2241.38	36.955
2231.69	46.9341
2221.99	26.7627
2212.26	26.7059
2202.52	29.9805
2192.75	39.8891
2182.96	19.9022
2173.15	49.6496
2163.32	29.7264
2153.47	26.3672
2143.6	42.7553
2133.7	36.1004
2123.79	29.4736
2113.85	35.9464
2103.9	29.3478
2093.92	35.7928
2083.92	55.1976
2073.9	32.3996
2063.86	45.2622
2053.79	35.4868
2043.71	25.7531
2033.6	44.9711
2023.47	67.3115
2013.32	35.1825
2003.15	22.3406
1992.95	47.7695
1982.73	47.6664
1972.49	69.7597
1962.23	63.2808
1951.95	56.8295
1941.64	59.8568
1931.31	88.0189
1920.96	90.9647
1910.59	81.3775
1900.19	74.9546
1889.78	84.1405
1879.33	83.9575
1868.87	102.391
1858.38	117.648
1847.87	111.213
1837.34	98.6402
1826.79	89.1974
1816.21	104.348
1805.6	116.369
1794.98	116.114
1784.33	112.81
1773.66	139.943
1762.96	142.671
1752.24	169.618
1741.5	181.333
1730.73	189.981
1719.94	126.375
1709.13	150.115
1698.29	158.77
1687.43	176.354
1676.54	229.648
1665.63	232.116
1654.7	249.418
1643.74	248.865
1632.76	218.752
1621.75	206.468
1610.72	211.896
1599.66	182.06
1588.58	181.655
1577.48	210.484
1566.35	230.433
1555.19	224.098
1544.01	223.598
1532.8	220.201
1521.57	202.363
1510.32	250.945
1499.04	250.383
1487.73	246.95
1476.4	246.395
1465.04	280.145
1453.66	313.742
1442.25	293.115
1430.82	315.17
1419.36	379.617
1407.87	310.923
1396.36	397.647
1384.82	444.583
1373.26	567.105
1361.66	490.191
1350.05	394.059
1338.4	418.261
1326.73	408.965
1315.04	419.138
1303.32	387.721
1291.57	627.231
1279.79	639.586
1267.99	349.32
1256.16	312.847
1244.3	301.18
1232.41	226.734
1220.5	209.863
1208.56	217.54
1196.6	168.207
1184.6	194.888
1172.58	216.045
1160.53	280.213
1148.45	311.826
1136.35	345.973
1124.22	406.719
1112.05	371.075
1099.86	303.632
1087.65	292.301
1075.4	246.555
1063.13	269.789
1050.82	274.441
1038.49	250.11
1026.13	218.01
1013.74	172.954
1001.33	214.382
988.88	166.933
976.404	192.566
963.899	186.925
951.365	157.997
938.802	144.707
926.209	172.727
913.586	231.478
900.934	256.594
888.252	212.474
875.54	283.484
862.799	374.542
850.027	439.75
837.225	296.703
824.393	184.686
811.53	138.818
798.637	115.828
785.714	115.555
772.76	100.244
759.775	105.007
746.759	134.689
733.712	161.741
720.635	153.91
707.526	217.933
694.386	200.12
681.214	172.531
668.011	169.661
654.777	179.067
641.51	254.5
628.212	266.098
614.882	253.283
601.52	221.092
588.126	235.104
574.7	234.539
561.241	284.63
547.75	255.069
534.226	177.638
520.67	227.499
507.081	246.062
493.459	216.869
479.804	192.571
466.115	203.963
452.394	264.982
438.639	269.06
424.851	240.153
411.029	277.149
397.174	288.19
383.285	238.405
369.361	265.803
355.404	225.614
341.413	243.625
327.387	333.297
313.327	288.612
299.232	269.479
285.103	307.877
270.939	350.669
256.74	411.537
242.507	533.683
228.238	571.045
213.933	578.715
199.594	622.564
185.219	553.278
170.808	653.281
156.362	757.279
141.879	1044.56
127.361	1489.17
112.807	1953.86
100.463	1811.76