Folder: Spicy-Raman_New/Spicy-Raman/model_train_and_validate/Raman_Data/polyamide/nylon

Note: Spicy-Raman/README.md
# Spicy-Raman <img src="https://github.com/nsuzuki97/Spicy-Raman/blob/master/logo.png" width="25%">

[![Build Status](https://travis-ci.org/nsuzuki97/Spicy-Raman.svg?branch=master)](https://travis-ci.org/nsuzuki97/Spicy-Raman)[![License: MIT](https://img.shields.io/badge/License-MIT-yellow.svg)](https://opensource.org/licenses/MIT)

<img src="https://www.cei.washington.edu/wordpress/wp-content/uploads/2016/01/CEI_logo_tag_color.1.png" width="555" height="160">  ![image](https://i.dailymail.co.uk/1/2018/09/27/17/4591062-0-image-m-35_1538065690576.jpg)

### Background
-----------
Microplastic ingestion has been considered to be a serious detriment to marine organisms, from oysters to orca whales. The majority of these samples have been identified to be one of four categories: polyethylene, nylon, polyamides, and fluorescents. Although comprising only about 20 - 25% of the total samples, this still represents about 10+ hours of analysis per study. By categorizing and filtering out these major classes of spectra, researchers will be able to focus on identifying novel groups of microparticles.

### Project Scope, Quick Intro
-----------
We employed TensorFlow (and the keras API because we are beginners) to create a model to classify the Raman spectrum from orca whale samples. The goal of our project is to machine learn the pattern of Raman spectra by polymer categories(e.g. polyamide, polyethylene), and let it expect the type a designated material falls into.
In this specific model, 3 levels of neurons were used in order to optimize adequate complexity with ease of model creation and speed.

We acquired Raman spectra from Luscombe Lab. We acquired them as .txt files so that we can finally change them into image files that can be used with Tensorflow(or Keras?). We first plotted those text data and converted them into image files(.png).

However since the amount of data we could get was less than we expected, we talked to Jimin Qian with this issue, and we decided to do data augmentation.
We first converted images into a numpy array(img_to_array), expanded dimension(expand_dims), and created image data augmentation generator(ImageDataGenerator(zoom_range=[0.5,1.0])). We used os.scandir() function to iterate over data not yet augmented and got augmented data.

We then created image databse in order to load these image data into codes.

The augmented data was then separated 80/20 into training and validation data.
They were stored in either "trainingdata_Pictures" directory or "validationdata_Pictures".

Each train and validation set were then split into 5 categories: flourescent, nylon, polyamide, polyethylene, and unknown.

### Sturcture

```
|-Licence

|-README

|-model_train_and_validate/

  |-Post_Augmented_Raman_Pictures
  
  |-Pre_Augmented_Raman_Picture
  
  |-Raman_Data
  
  |-py_files
  
  |-test/
  
  |-preprocessing.py
    
  |-Augmentation.py
    
  |-pic_class.py
    
  |-TrainTestSplit.py
    
    |-test_Augmentation.py
    
    |-test_pic

File: 20191120 Set2Sample5a-1_.txt
3201.26	16.8451
3193.53	29.4256
3185.8	41.954
3178.04	37.6844
3170.27	33.4314
3162.49	16.6828
3154.68	20.8125
3146.87	41.543
3139.04	29.0228
3131.19	8.27588
3123.33	8.25955
3115.45	53.5811
3107.56	65.8157
3099.65	36.9482
3091.72	65.5557
3083.78	20.4456
3075.82	40.8103
3067.85	44.8023
3059.86	52.8432
3051.86	52.7384
3043.84	28.3412
3035.8	24.2442
3027.75	16.1307
3019.68	40.2465
3011.6	56.233
3003.5	20.0432
2995.38	32.0052
2987.25	35.9341
2979.1	51.8012
2970.94	79.535
2962.76	79.3761
2954.56	59.4131
2946.35	122.541
2938.12	114.406
2929.87	137.8
2921.6	129.665
2913.32	137.248
2905.03	152.626
2896.71	179.659
2888.38	175.4
2880.04	233.397
2871.67	163.049
2863.29	201.463
2854.89	231.989
2846.48	150.489
2838.05	96.2727
2829.6	42.2745
2821.13	72.872
2812.65	57.4142
2804.15	34.3788
2795.63	45.7456
2787.1	45.653
2778.55	26.5769
2769.98	18.945
2761.39	49.157
2752.78	56.6044
2744.16	26.3617
2735.52	56.3744
2726.87	63.761
2718.19	63.6311
2709.5	44.8245
2700.79	63.3719
2692.06	40.9216
2683.32	55.6883
2674.55	25.9347
2665.77	33.2765
2656.97	47.9676
2648.15	69.9629
2639.32	40.4218
2630.46	69.6763
2621.59	21.9579
2612.7	76.6947
2603.79	40.0909
2594.86	80.0168
2585.92	58.0742
2576.95	50.7103
2567.97	79.5234
2558.97	50.5014
2549.95	28.7984
2540.91	64.6625
2531.86	25.0945
2522.78	42.9302
2513.69	32.131
2504.57	49.878
2495.44	63.9959
2486.29	67.4111
2477.12	77.8929
2467.93	52.9985
2458.72	31.733
2449.49	56.2968
2440.24	59.6908
2430.98	45.5508
2421.69	76.9252
2412.39	52.3396
2403.06	62.6763
2393.72	45.1716
2384.35	65.882
2374.97	65.7441
2365.57	62.1535
2356.14	58.5775
2346.7	17.1925
2337.24	78.9196
2327.76	54.7853
2318.25	44.4194
2308.73	40.9163
2299.19	57.8427
2289.63	54.3255
2280.04	81.3164
2270.44	50.7155
2260.82	74.2257
2251.17	70.702
2241.51	97.4296
2231.83	56.993
2222.12	90.3266
2212.39	33.3834
2202.65	83.2814
2192.88	73.132
2183.09	79.6109
2173.28	79.4416
2163.45	75.9695
2153.6	75.8077
2143.73	46.0455
2133.84	72.2028
2123.92	52.3991
2113.99	68.6268
2104.03	52.1753
2094.05	87.8575
2084.06	64.9403
2074.03	103.682
2063.99	93.7601
2053.93	96.785
2043.84	67.6039
2033.74	86.7325
2023.61	115.395
2013.46	83.161
2003.28	92.5567
1993.09	73.2487
1982.87	69.9127
1972.63	104.643
1962.37	101.252
1952.09	119.977
1941.78	75.6108
1931.45	97.4523
1921.1	94.1041
1910.73	134.59
1900.33	140.544
1889.92	155.82
1879.48	174.139
1869.01	148.937
1858.53	136.228
1848.02	139.02
1837.48	147.965
1826.93	163.021
1816.35	171.872
1805.75	183.745
1795.12	143.618
1784.47	176.843
1773.8	152.116
1763.11	173.032
1752.39	205.97
1741.65	172.272
1730.88	174.908
1720.09	186.559
1709.28	153.122
1698.44	206.707
1687.58	209.24
1676.69	187.9
1665.78	217.243
1654.85	249.425
1643.89	237.021
1632.91	242.408
1621.9	247.769
1610.87	244.276
1599.81	252.542
1588.73	208.03
1577.63	230.955
1566.5	268.36
1555.34	224.105
1544.16	220.7
1532.96	249.182
1521.72	245.733
1510.47	291.335
1499.19	290.683
1487.88	295.774
1476.55	352.413
1465.19	440.241
1453.81	470.626
1442.4	549.251
1430.97	434.436
1419.51	359.797
1408.02	370.292
1396.51	284.848
1384.97	360.179
1373.41	376.209
1361.82	352.948
1350.2	357.738
1338.56	359.715
1326.89	375.591
1315.2	396.944
1303.47	492.975
1291.72	428.299
1279.95	314.289
1268.14	308.071
1256.31	312.856
1244.46	287.499
1232.57	289.573
1220.66	291.636
1208.72	282.81
1196.76	263.17
1184.76	270.687
1172.74	251.16
1160.69	285.61
1148.62	250.006
1136.51	281.615
1124.38	347.862
1112.22	285.657
1100.03	327.613
1087.81	342.8
1075.57	323.448
1063.29	457.598
1050.99	374.73
1038.66	329.102
1026.3	296.818
1013.91	303.989
1001.49	298.053
989.047	279.1
976.572	369.531
964.068	994.367
951.534	530.99
938.971	341.106
926.378	278.434
913.756	275.21
901.104	323.319
888.423	330.24
875.711	301.371
862.97	328.69
850.198	317.749
837.397	294.176
824.565	316.253
811.703	290.266
798.811	241.737
785.888	231.116
772.934	243.1
759.949	272.528
746.934	246.938
733.888	258.794
720.81	273.074
707.702	240.229
694.562	261.893
681.391	273.593
668.189	243.434
654.954	233.04
641.688	247.167
628.391	244.134
615.061	282.517
601.7	293.988
588.306	351.455
574.88	285.325
561.422	296.7
547.931	286.36
534.408	288.071
520.852	273.008
507.263	262.793
493.642	302.673
479.987	271.034
466.299	282.237
452.578	376.193
438.824	372.92
425.036	393.205
411.215	331.181
397.36	328.032
383.471	303.859
369.548	303.119
355.592	334.943
341.601	308.601
327.575	342.566
313.516	344.037
299.422	331.678
285.293	376.817
271.129	375.892
256.931	390.973
242.698	456.154
228.429	466.406
214.125	428.944
199.786	473.164
185.412	451.67
171.001	531.653
156.556	593.259
142.074	661.279
127.556	664.111
113.002	773.987
100.659	656.617

File: 20191120 Set2Sample5b-1_.txt
3201.26	37.9015
3193.53	37.8329
3185.8	41.954
3178.04	62.8073
3170.27	58.505
3162.49	4.17071
3154.68	12.4875
3146.87	37.3887
3139.04	45.6073
3131.19	57.9312
3123.33	49.5573
3115.45	37.0946
3107.56	53.4753
3099.65	41.0535
3091.72	32.7779
3083.78	20.4456
3075.82	73.4585
3067.85	61.0941
3059.86	44.7135
3051.86	28.3976
3043.84	48.585
3035.8	64.6513
3027.75	52.4247
3019.68	16.0986
3011.6	76.3162
3003.5	48.1037
2995.38	64.0104
2987.25	79.8535
2979.1	55.7859
2970.94	43.7443
2962.76	119.064
2954.56	114.865
2946.35	150.212
2938.12	165.691
2929.87	177.171
2921.6	168.957
2913.32	192.147
2905.03	226.982
2896.71	203.093
2888.38	257.254
2880.04	287.856
2871.67	209.634
2863.29	220.835
2854.89	270.654
2846.48	277.826
2838.05	119.378
2829.6	65.3333
2821.13	53.6952
2812.65	88.0351
2804.15	42.0186
2795.63	80.0549
2787.1	53.2618
2778.55	83.5274
2769.98	71.991
2761.39	60.5009
2752.78	45.2835
2744.16	71.5532
2735.52	67.6493
2726.87	86.2649
2718.19	74.8601
2709.5	89.649
2700.79	59.6441
2692.06	107.884
2683.32	59.4008
2674.55	62.9844
2665.77	55.4608
2656.97	92.2454
2648.15	95.7387
2639.32	66.1448
2630.46	95.3465
2621.59	106.13
2612.7	91.3033
2603.79	91.1156
2594.86	80.0168
2585.92	94.3707
2576.95	79.6876
2567.97	93.9821
2558.97	97.3955
2549.95	115.193
2540.91	118.548
2531.86	111.133
2522.78	93.0155
2513.69	78.5425
2504.57	81.9425
2495.44	78.2173
2486.29	124.178
2477.12	113.299
2467.93	127.196
2458.72	98.7248
2449.49	84.4452
2440.24	122.893
2430.98	143.66
2421.69	87.415
2412.39	115.147
2403.06	94.0145
2393.72	97.2928
2384.35	121.362
2374.97	152.25
2365.57	113.948
2356.14	127.492
2346.7	82.5241
2337.24	126.958
2327.76	164.356
2318.25	105.923
2308.73	143.207
2299.19	166.723
2289.63	166.372
2280.04	128.751
2270.44	118.336
2260.82	124.834
2251.17	151.504
2241.51	154.544
2231.83	181.037
2222.12	157.235
2212.39	193.624
2202.65	139.913
2192.88	176.182
2183.09	152.587
2173.28	172.123
2163.45	165.151
2153.6	151.615
2143.73	180.893
2133.84	173.943
2123.92	186.672
2113.99	186.273
2104.03	179.353
2094.05	201.747
2084.06	198.068
2074.03	262.444
2063.99	210.152
2053.93	229.058
2043.84	231.785
2033.74	212.013
2023.61	233.994
2013.46	265.476
2003.28	280.862
1993.09	261.148
1982.87	301.896
1972.63	282.218
1962.37	291.1
1952.09	262.055
1941.78	292.992
1931.45	282.926
1921.1	307.407
1910.73	300.48
1900.33	284.211
1889.92	264.895
1879.48	304.743
1869.01	332.005
1858.53	325.09
1848.02	333.649
1837.48	332.92
1826.93	369.103
1816.35	343.743
1805.75	333.804
1795.12	333.073
1784.47	429.911
1773.8	380.291
1763.11	431.062
1752.39	417.998
1741.65	395.923
1730.88	404.098
1720.09	445.334
1709.28	414.329
1698.44	410.419
1687.58	511.143
1676.69	468.258
1665.78	467.222
1654.85	519.636
1643.89	580.702
1632.91	493.685
1621.9	507.337
1610.87	570.958
1599.81	487.465
1588.73	495.171
1577.63	532.073
1566.5	501.717
1555.34	532.613
1544.16	508.192
1532.96	544.723
1521.72	586.869
1510.47	556.71
1499.19	587.121
1487.88	657.595
1476.55	704.826
1465.19	786.145
1453.81	944.105
1442.4	1027.36
1430.97	797.886
1419.51	705.43
1408.02	570.985
1396.51	612
1384.97	700.661
1373.41	701.883
1361.82	742.312
1350.2	737.835
1338.56	694.333
1326.89	776.222
1315.2	810.544
1303.47	877.938
1291.72	834.491
1279.95	738.855
1268.14	706.913
1256.31	694.322
1244.46	648.926
1232.57	680.224
1220.66	635.058
1208.72	685.27
1196.76	632.15
1184.76	655.061
1172.74	712.971
1160.69	630.498
1148.62	707.006
1136.51	737.562
1124.38	864.303
1112.22	688.779
1100.03	793.729
1087.81	797.209
1075.57	816.574
1063.29	915.196
1050.99	820.711
1038.66	729.291
1026.3	816.905
1013.91	796.662
1001.49	810.495
989.047	795.565
976.572	811.927
964.068	1477.27
951.534	1090.47
938.971	826.924
926.378	845.614
913.756	776.76
901.104	782.637
888.423	808.961
875.711	824.939
862.97	825.547
850.198	815.979
837.397	791.233
824.565	786.837
811.703	830.413
798.811	775.572
785.888	771.226
772.934	822.03
759.949	830.084
746.934	788.206
733.888	836.104
720.81	861.424
707.702	809.844
694.562	854.859
681.391	842.963
668.189	865.542
654.954	878.194
641.688	898.12
628.391	886.206
615.061	906.004
601.7	942.707
588.306	913.783
574.88	964.785
561.422	928.695
547.931	991.433
534.408	926.629
520.852	974.686
507.263	938.887
493.642	981.901
479.987	1010.43
466.299	1007.99
452.578	1062.33
438.824	1083.36
425.036	1045.41
411.215	1040.52
397.36	1110.62
383.471	1105.58
369.548	1116.88
355.592	1028.09
341.601	1109.11
327.575	1124.91
313.516	1094.45
299.422	1084.86
285.293	1105.18
271.129	1201.02
256.931	1081.46
242.698	1243.02
228.429	1299.11
214.125	1234.63
199.786	1270.07
185.412	1233.06
171.001	1383.2
156.556	1373.03
142.074	1454.81
127.556	1460.15
113.002	1547.97
100.659	1302.1

File: 20191120 Set2Sample5c-1_.txt
3201.26	29.479
3193.53	29.4256
3185.8	50.3448
3178.04	41.8716
3170.27	33.4314
3162.49	37.5364
3154.68	54.1125
3146.87	33.2344
3139.04	37.315
3131.19	37.2415
3123.33	61.9467
3115.45	61.8244
3107.56	37.0213
3099.65	20.5268
3091.72	61.4585
3083.78	53.1586
3075.82	32.6482
3067.85	48.8753
3059.86	28.4541
3051.86	64.9088
3043.84	80.9749
3035.8	28.2849
3027.75	28.2287
3019.68	72.4437
3011.6	60.2496
3003.5	32.0691
2995.38	36.0059
2987.25	15.9707
2979.1	87.6636
2970.94	87.4885
2962.76	55.5633
2954.56	106.944
2946.35	126.494
2938.12	197.252
2929.87	133.863
2921.6	129.665
2913.32	168.618
2905.03	191.761
2896.71	140.603
2888.38	210.48
2880.04	186.717
2871.67	147.52
2863.29	236.332
2854.89	243.589
2846.48	181.359
2838.05	77.0182
2829.6	88.3921
2821.13	88.2135
2812.65	80.3799
2804.15	53.4782
2795.63	80.0549
2787.1	76.0883
2778.55	49.3571
2769.98	60.624
2761.39	113.439
2752.78	60.378
2744.16	94.1489
2735.52	60.1327
2726.87	71.2623
2718.19	104.804
2709.5	74.7075
2700.79	85.7384
2692.06	74.403
2683.32	103.951
2674.55	77.8042
2665.77	103.527
2656.97	107.005
2648.15	66.2807
2639.32	121.265
2630.46	80.6778
2621.59	76.8526
2612.7	80.3469
2603.79	80.1817
2594.86	116.388
2585.92	94.3707
2576.95	76.0654
2567.97	43.3764
2558.97	93.7883
2549.95	86.3951
2540.91	86.2166
2531.86	111.133
2522.78	67.9728
2513.69	107.103
2504.57	78.3798
2495.44	88.8833
2486.29	102.891
2477.12	113.299
2467.93	95.3973
2458.72	119.88
2449.49	112.594
2440.24	112.359
2430.98	112.125
2421.69	167.837
2412.39	132.594
2403.06	111.425
2393.72	128.565
2384.35	162.971
2374.97	128.028
2365.57	127.76
2356.14	161.949
2346.7	144.417
2337.24	126.958
2327.76	123.267
2318.25	157.176
2308.73	105.7
2299.19	163.321
2289.63	115.442
2280.04	166.021
2270.44	145.384
2260.82	168.695
2251.17	164.971
2241.51	137.745
2231.83	157.569
2222.12	173.962
2212.39	150.225
2202.65	176.557
2192.88	166.209
2183.09	218.93
2173.28	165.503
2163.45	175.06
2153.6	197.759
2143.73	174.315
2133.84	229.736
2123.92	176.847
2113.99	202.613
2104.03	205.44
2094.05	182.223
2084.06	198.068
2074.03	249.484
2063.99	216.618
2053.93	183.891
2043.84	206.031
2033.74	208.8
2023.61	208.351
2013.46	271.873
2003.28	226.604
1993.09	216.561
1982.87	238.339
1972.63	240.995
1962.37	256.295
1952.09	258.897
1941.78	267.788
1931.45	264.064
1921.1	250.944
1910.73	278.57
1900.33	256.102
1889.92	280.477
1879.48	279.866
1869.01	279.257
1858.53	272.456
1848.02	339.827
1837.48	366.829
1826.93	319.889
1816.35	343.743
1805.75	342.991
1795.12	308.627
1784.47	353.686
1773.8	386.375
1763.11	361.242
1752.39	405.883
1741.65	380.811
1730.88	395.051
1720.09	379.136
1709.28	411.326
1698.44	371.474
1687.58	433.426
1676.69	495.101
1665.78	479.126
1654.85	484.004
1643.89	429.601
1632.91	475.948
1621.9	474.891
1610.87	467.95
1599.81	472.783
1588.73	489.311
1577.63	467.756
1566.5	507.551
1555.34	520.971
1544.16	516.904
1532.96	527.338
1521.72	552.178
1510.47	522.096
1499.19	474.878
1487.88	479.556
1476.55	676.174
1465.19	717.536
1453.81	775.821
1442.4	859.45
1430.97	738.258
1419.51	648.769
1408.02	610.558
1396.51	662.765
1384.97	650.011
1373.41	634.503
1361.82	661.078
1350.2	662.374
1338.56	677.603
1326.89	745.618
1315.2	691.183
1303.47	847.473
1291.72	746.068
1279.95	733.341
1268.14	654.651
1256.31	647.668
1244.46	621.545
1232.57	573.683
1220.66	596.9
1208.72	598.252
1196.76	626.724
1184.76	606.338
1172.74	599.544
1160.69	643.971
1148.62	637.112
1136.51	691.968
1124.38	690.372
1112.22	656.743
1100.03	727.141
1087.81	682.942
1075.57	662.804
1063.29	870.229
1050.99	701.959
1038.66	721.392
1026.3	701.33
1013.91	699.7
1001.49	684.999
989.047	683.404
976.572	726.05
964.068	1298.13
951.534	929.88
938.971	731.311
926.378	688.351
913.756	681.594
901.104	700.525
888.423	834.561
875.711	753.427
862.97	820.451
850.198	780.391
837.397	763.337
824.565	726.117
811.703	673.922
798.811	692.475
785.888	678.277
772.934	624.041
759.949	715.072
746.934	678.456
733.888	689.288
720.81	724.887
707.702	678.585
694.562	684.382
681.391	690.145
668.189	749.972
654.954	735.917
641.688	792.891
628.391	754.374
615.061	747.697
601.7	818.794
588.306	850.763
574.88	785.852
561.422	810.497
547.931	796.515
534.408	835.407
520.852	819.024
507.263	809.88
493.642	829.373
479.987	824.99
466.299	808.762
452.578	896.71
438.824	932.3
425.036	932.391
411.215	854.963
397.36	913.803
383.471	941.964
369.548	890.703
355.592	855.965
341.601	918.843
327.575	946.687
313.516	923.589
299.422	889.08
285.293	951.234
271.129	997.032
256.931	1028.88
242.698	978.45
228.429	1085.25
214.125	1059.88
199.786	1170.46
185.412	1065.94
171.001	1189.46
156.556	1242.7
142.074	1331.52
127.556	1355.05
113.002	1402.99
100.659	1221.98

File: 20191120 Set2Sample5e-1_.txt
3201.26	58.9579
3193.53	25.2219
3185.8	8.3908
3178.04	25.1229
3170.27	41.7893
3162.49	45.8778
3154.68	33.3
3146.87	41.543
3139.04	29.0228
3131.19	16.5518
3123.33	28.9084
3115.45	20.6081
3107.56	-16.4539
3099.65	36.9482
3091.72	32.7779
3083.78	-8.17825
3075.82	48.9723
3067.85	28.5106
3059.86	28.4541
3051.86	68.9656
3043.84	32.39
3035.8	56.5699
3027.75	40.3267
3019.68	68.4191
3011.6	52.2163
3003.5	24.0518
2995.38	48.0078
2987.25	59.8901
2979.1	51.8012
2970.94	27.8373
2962.76	75.4073
2954.56	75.2566
2946.35	134.4
2938.12	145.966
2929.87	161.422
2921.6	133.594
2913.32	133.326
2905.03	133.059
2896.71	132.791
2888.38	155.911
2880.04	182.827
2871.67	147.52
2863.29	232.458
2854.89	193.324
2846.48	185.217
2838.05	61.6145
2829.6	46.1176
2821.13	38.3537
2812.65	49.759
2804.15	80.2173
2795.63	64.8063
2787.1	53.2618
2778.55	49.3571
2769.98	75.78
2761.39	56.7196
2752.78	56.6044
2744.16	60.2553
2735.52	48.8578
2726.87	60.0103
2718.19	116.033
2709.5	33.6184
2700.79	93.1939
2692.06	85.5634
2683.32	74.251
2674.55	66.6893
2665.77	66.5529
2656.97	118.074
2648.15	66.2807
2639.32	99.2172
2630.46	88.0122
2621.59	47.5754
2612.7	87.6511
2603.79	94.7602
2594.86	69.1054
2585.92	61.7039
2576.95	57.9546
2567.97	86.7528
2558.97	82.9666
2549.95	79.1955
2540.91	71.8472
2531.86	118.303
2522.78	46.5077
2513.69	85.6827
2504.57	74.817
2495.44	67.5513
2486.29	70.9591
2477.12	92.0553
2467.93	84.7976
2458.72	77.5695
2449.49	126.668
2440.24	105.337
2430.98	98.1094
2421.69	83.9184
2412.39	122.126
2403.06	97.4965
2393.72	114.666
2384.35	152.569
2374.97	103.807
2365.57	110.495
2356.14	86.1433
2346.7	127.225
2337.24	106.37
2327.76	106.146
2318.25	133.258
2308.73	136.388
2299.19	142.906
2289.63	122.232
2280.04	121.975
2270.44	131.86
2260.82	151.825
2251.17	158.238
2241.51	151.184
2231.83	134.101
2222.12	127.126
2212.39	166.917
2202.65	149.906
2192.88	166.209
2183.09	152.587
2173.28	142.333
2163.45	158.545
2153.6	177.983
2143.73	177.604
2133.84	190.353
2123.92	170.297
2113.99	189.541
2104.03	156.526
2094.05	211.509
2084.06	185.08
2074.03	168.483
2063.99	200.453
2053.93	151.63
2043.84	196.373
2033.74	202.376
2023.61	217.967
2013.46	204.704
2003.28	229.796
1993.09	203.822
1982.87	228.805
1972.63	218.798
1962.37	215.161
1952.09	224.167
1941.78	267.788
1931.45	267.208
1921.1	260.355
1910.73	241.01
1900.33	268.595
1889.92	302.291
1879.48	264.318
1869.01	338.211
1858.53	297.225
1848.02	268.772
1837.48	299.012
1826.93	319.889
1816.35	309.983
1805.75	297.055
1795.12	296.404
1784.47	347.588
1773.8	337.698
1763.11	358.206
1752.39	339.245
1741.65	353.611
1730.88	361.879
1720.09	388.163
1709.28	402.319
1698.44	422.402
1687.58	421.469
1676.69	399.66
1665.78	437.463
1654.85	421.647
1643.89	453.303
1632.91	428.649
1621.9	460.143
1610.87	435.576
1599.81	440.481
1588.73	442.431
1577.63	432.675
1566.5	452.129
1555.34	500.598
1544.16	447.209
1532.96	495.466
1521.72	482.794
1510.47	510.558
1499.19	520.926
1487.88	528.373
1476.55	573.029
1465.19	654.644
1453.81	764.411
1442.4	774.075
1430.97	675.79
1419.51	643.103
1408.02	593.598
1396.51	516.11
1384.97	627.5
1373.41	609.235
1361.82	686.288
1350.2	645.605
1338.56	641.352
1326.89	570.342
1315.2	702.286
1303.47	711.767
1291.72	735.016
1279.95	636.849
1268.14	580.384
1256.31	614.735
1244.46	555.831
1232.57	546.365
1220.66	547.84
1208.72	543.865
1196.76	542.618
1184.76	630.7
1172.74	613.047
1160.69	565.832
1148.62	548.4
1136.51	587.368
1124.38	626.152
1112.22	600.68
1100.03	633.918
1087.81	701.544
1075.57	660.152
1063.29	735.331
1050.99	683.486
1038.66	663.47
1026.3	635.662
1013.91	644.667
1001.49	622.251
989.047	612.977
976.572	640.173
964.068	1038.5
951.534	764.107
938.971	648.619
926.378	644.523
913.756	650.73
901.104	674.864
888.423	729.601
875.711	681.915
862.97	693.052
850.198	711.757
837.397	715.153
824.565	672.986
811.703	696.638
798.811	659.739
785.888	635.57
772.934	671.659
759.949	700.071
746.934	705.894
733.888	666.892
720.81	717.44
707.702	671.155
694.562	681.911
681.391	741.906
668.189	757.349
654.954	735.917
641.688	765.972
628.391	766.581
615.061	803.713
601.7	809.076
588.306	826.525
574.88	800.36
561.422	769.49
547.931	806.141
534.408	876.217
520.852	833.393
507.263	819.436
493.642	798.391
479.987	867.785
466.299	891.773
452.578	884.88
438.824	958.262
425.036	897.073
411.215	803.289
397.36	890.373
383.471	953.651
369.548	953.658
355.592	930.397
341.601	951.328
327.575	1002.24
313.516	1034.42
299.422	932.843
285.293	985.699
271.129	1061.21
256.931	1060.89
242.698	1017.22
228.429	1046.57
214.125	1137.04
199.786	1138.76
185.412	1147.24
171.001	1171.44
156.556	1191.01
142.074	1311.35
127.556	1279.03
113.002	1376.23
100.659	1086.2