Folder: Spicy-Raman_New/Spicy-Raman/model_train_and_validate/Raman_Data/polyamide/nylon (part 3)

File: Set2Sample6_1 - 1_.txt
3201.19	122.125
3193.47	79.8681
3185.73	71.3206
3177.97	108.864
3170.2	87.756
3162.42	62.5596
3154.62	29.137
3146.8	70.622
3138.97	74.6289
3131.12	82.7575
3123.26	82.5942
3115.38	70.0665
3107.49	69.9281
3099.58	69.7899
3091.65	57.3603
3083.71	85.8702
3075.76	57.1334
3067.78	61.0931
3059.79	109.75
3051.79	68.9645
3043.77	101.217
3035.73	68.6908
3027.68	108.88
3019.62	92.5655
3011.53	132.547
3003.43	128.274
2995.31	172.025
2987.18	187.653
2979.03	247.048
2970.87	314.158
2962.69	357.187
2954.49	352.512
2946.27	498.063
2938.04	615.415
2929.8	610.246
2921.53	679.748
2913.25	745.046
2904.96	731.81
2896.64	753.774
2888.31	748.362
2879.96	774.086
2871.6	710.415
2863.22	774.847
2854.82	893.144
2846.41	578.794
2837.97	261.857
2829.53	157.566
2821.06	161.083
2812.58	133.964
2804.08	148.972
2795.56	99.1139
2787.02	102.717
2778.47	148.069
2769.9	121.246
2761.31	143.687
2752.71	177.358
2744.09	143.104
2735.45	214.219
2726.79	187.529
2718.12	202.119
2709.42	179.295
2700.71	201.296
2691.99	148.803
2683.24	129.937
2674.48	166.721
2665.69	162.682
2656.89	169.729
2648.08	132.559
2639.24	176.383
2630.39	157.686
2621.51	161.022
2612.62	164.343
2603.71	134.849
2594.79	149.12
2585.84	188.738
2576.88	159.373
2567.89	187.961
2558.89	155.109
2549.87	125.991
2540.83	208.353
2531.78	164.904
2522.7	153.831
2513.61	171.362
2504.49	228.01
2495.36	156.432
2486.21	166.751
2477.04	166.405
2467.85	166.059
2458.64	197.446
2449.41	179.443
2440.16	189.603
2430.9	185.704
2421.61	188.813
2412.31	188.419
2402.98	215.881
2393.64	159.835
2384.27	180.306
2374.89	214.53
2365.49	193.363
2356.06	227.414
2346.62	213.184
2337.16	226.461
2327.68	249.953
2318.17	211.843
2308.65	214.807
2299.11	241.574
2289.55	207.112
2279.96	233.781
2270.36	256.954
2260.74	226.047
2251.09	252.503
2241.43	245.25
2231.74	231.321
2222.04	267.63
2212.31	297.107
2202.56	246.509
2192.8	282.551
2183.01	232.194
2173.2	268.111
2163.37	293.964
2153.52	286.746
2143.65	226.934
2133.75	282.243
2123.84	275.09
2113.9	323.521
2103.95	300.003
2093.97	331.9
2083.97	347.424
2073.95	301.32
2063.91	368.568
2053.84	393.585
2043.76	395.959
2033.65	391.896
2023.52	391.052
2013.37	418.996
2003.2	450.009
1993	538.209
1982.78	568.826
1972.54	577.11
1962.28	629.651
1952	663.018
1941.69	693.087
1931.37	726.164
1921.01	793.598
1910.64	813.785
1900.25	958.805
1889.83	909.975
1879.39	998.172
1868.92	1030.13
1858.44	1046.46
1847.93	1065.8
1837.39	1125.13
1826.84	1316.44
1816.26	1292.08
1805.66	1347.44
1795.03	1381.16
1784.38	1490.94
1773.71	1375.11
1763.02	1596.72
1752.3	1626.53
1741.55	1722.69
1730.79	1809.36
1720	1832.46
1709.18	1921.49
1698.35	1929.23
1687.48	2086.38
1676.6	2284.58
1665.69	2556.28
1654.75	2497.18
1643.8	2476.83
1632.81	2193.46
1621.81	2318.37
1610.77	2324.99
1599.72	2284.59
1588.64	2338.1
1577.53	2362.13
1566.4	2351.03
1555.25	2529.14
1544.07	2575.76
1532.86	2575.8
1521.63	2645.2
1510.37	2717.16
1499.09	2829.07
1487.79	2914.61
1476.45	3254.75
1465.1	3944.95
1453.71	4463.74
1442.31	4587.45
1430.87	4159.72
1419.41	3657.4
1407.93	3459.77
1396.41	3502.72
1384.88	3711.47
1373.31	4093.31
1361.72	4196.09
1350.11	4041.25
1338.46	4132.46
1326.79	4253.84
1315.1	4399.62
1303.37	4644.4
1291.62	4666.99
1279.85	4160.12
1268.04	3105.41
1256.21	2774.49
1244.36	2538.16
1232.47	2354.79
1220.56	2191.32
1208.62	2121.04
1196.66	1977.81
1184.66	1948.91
1172.64	2044.35
1160.59	2171.68
1148.51	2290.34
1136.41	2231.42
1124.28	2627.65
1112.11	2394.66
1099.93	2453.06
1087.71	2548.36
1075.46	2677.68
1063.19	2827.53
1050.89	2591.39
1038.55	2519.56
1026.19	2206.39
1013.81	2237.95
1001.39	2269.34
988.942	2005.83
976.466	2563.25
963.962	8432.49
951.428	3991.41
938.864	2106.03
926.271	1773.69
913.649	1921.29
900.997	1998.89
888.315	2027.48
875.604	2216.82
862.862	2519.91
850.09	2742.75
837.289	2353.37
824.457	1813.99
811.594	1350.34
798.702	1178.44
785.778	1107.83
772.824	1095.18
759.84	1130.09
746.824	1114.94
733.778	1152.11
720.7	1124.55
707.591	1317.52
694.451	1269.91
681.28	1217.59
668.077	1145.84
654.843	1228.96
641.576	1338.59
628.279	1545.34
614.949	1704.81
601.587	1814.92
588.193	2309.86
574.767	2038.34
561.308	1787.4
547.817	1771.07
534.294	1531.55
520.738	1444.04
507.149	1469.22
493.527	1494.27
479.872	1597.64
466.184	1819.09
452.463	2391.97
438.708	2657.59
424.92	2896.01
411.099	2252.45
397.243	2139.2
383.354	1986.73
369.431	1998.21
355.474	1928.21
341.483	2102.16
327.457	2115.54
313.397	2311.24
299.303	2462.2
285.174	2591.72
271.01	2759.55
256.812	3072.85
242.578	3480.39
228.309	4108.84
214.005	4398.29
199.666	4785.88
185.291	4891.49
170.88	5131.7
156.434	5936.96
141.952	7388.24
127.434	9301.84
112.88	11761.3
100.536	10614.7