Folder: Spicy-Raman_New/Spicy-Raman/model_train_and_validate/Raman_Data/polyamide/nylon (part 2)

File: Set1Sample2_3 - 1_.txt
3201.19	16.8448
3193.47	8.40717
3185.73	37.758
3177.97	16.7484
3170.2	20.8943
3162.42	16.6826
3154.62	24.9746
3146.8	16.6169
3138.97	20.7302
3131.12	20.6894
3123.26	20.6486
3115.38	-8.24312
3107.49	-4.11342
3099.58	32.8423
3091.65	8.19433
3083.71	12.2672
3075.76	20.4048
3067.78	20.3644
3059.79	8.1296
3051.79	16.2269
3043.77	28.3408
3035.73	8.08128
3027.68	8.06521
3019.62	4.02459
3011.53	12.0497
3003.43	20.0429
2995.31	32.0047
2987.18	43.9187
2979.03	31.8771
2970.87	11.9301
2962.69	15.875
2954.49	31.6865
2946.27	47.4346
2938.04	43.3947
2929.8	39.3707
2921.53	35.3626
2913.25	50.9768
2904.96	35.2208
2896.64	39.0557
2888.31	19.4886
2879.96	42.7887
2871.6	58.2308
2863.22	38.7423
2854.82	42.5307
2846.41	30.869
2837.97	42.3593
2829.53	34.5876
2821.06	42.1884
2812.58	34.448
2804.08	34.3783
2795.56	38.1207
2787.02	34.2392
2778.47	30.3731
2769.9	37.8894
2761.31	22.6875
2752.71	15.0943
2744.09	60.2543
2735.45	33.8241
2726.79	18.7529
2718.12	37.4294
2709.42	52.2944
2700.71	29.8216
2691.99	22.3205
2683.24	33.4124
2674.48	40.7539
2665.69	55.4598
2656.89	40.5873
2648.08	73.6439
2639.24	25.7225
2630.39	44.0054
2621.51	58.5534
2612.62	69.3893
2603.71	32.8011
2594.79	69.1043
2585.84	83.4803
2576.88	43.4652
2567.89	54.2196
2558.89	43.2862
2549.87	82.7939
2540.83	35.923
2531.78	46.6034
2522.7	60.8168
2513.61	49.9807
2504.49	57.0025
2495.36	71.1054
2486.21	46.1226
2477.04	42.4863
2467.85	56.5308
2458.64	91.6715
2449.41	66.8513
2440.16	87.7791
2430.9	59.5654
2421.61	62.9378
2412.31	52.3387
2402.98	69.6392
2393.64	69.4936
2384.27	72.8157
2374.89	69.2032
2365.49	86.3228
2356.06	93.0332
2346.62	61.892
2337.16	58.3309
2327.68	71.9044
2318.17	61.5028
2308.65	68.1927
2299.11	88.4638
2289.55	67.9057
2279.96	105.032
2270.36	111.572
2260.74	91.0936
2251.09	87.5343
2241.43	100.788
2231.74	93.8693
2222.04	97.0158
2212.31	130.193
2202.56	76.6176
2192.8	106.372
2183.01	79.6095
2173.2	92.6802
2163.37	108.998
2153.52	148.317
2143.65	134.845
2133.75	134.557
2123.84	117.896
2113.9	107.84
2103.95	136.958
2093.97	120.395
2083.97	126.631
2073.95	136.08
2063.91	116.39
2053.84	154.853
2043.76	86.9178
2033.65	144.552
2023.52	102.571
2013.37	105.549
2003.2	150.003
1993	146.495
1982.78	149.356
1972.54	145.863
1962.28	158.204
1952	138.918
1941.69	173.272
1931.37	135.173
1921.01	141.154
1910.64	162.757
1900.25	165.527
1889.83	177.632
1879.39	174.136
1868.92	195.476
1858.44	188.858
1847.93	179.178
1837.39	151.044
1826.84	221.458
1816.26	202.559
1805.66	214.365
1795.03	207.785
1784.38	204.28
1773.71	188.621
1763.02	221.598
1752.3	224.14
1741.55	217.603
1730.79	223.155
1720	243.726
1709.18	216.168
1698.35	287.588
1687.48	239.127
1676.6	229.651
1665.69	318.419
1654.75	243.482
1643.8	245.905
1632.81	251.272
1621.81	286.109
1610.77	282.531
1599.72	249.601
1588.64	269.555
1577.53	301.113
1566.4	277.106
1555.25	302.682
1544.07	322.333
1532.86	286.844
1521.63	294.875
1510.37	297.099
1499.09	279.165
1487.79	315.869
1476.45	335.216
1465.1	351.615
1453.71	370.79
1442.31	330.114
1430.87	346.407
1419.41	405.119
1407.93	364.632
1396.41	358.168
1384.88	326.406
1373.31	393.047
1361.72	389.356
1350.11	352.142
1338.46	379.227
1326.79	442.355
1315.1	433.022
1303.37	390.495
1291.62	408.948
1279.85	421.801
1268.04	354.825
1256.21	354.015
1244.36	334.04
1232.47	346.935
1220.56	346.141
1208.62	353.506
1196.66	328.278
1184.66	322.111
1172.64	340.275
1160.59	382.603
1148.51	344.088
1136.41	391.571
1124.28	396.02
1112.11	389.767
1099.93	370.223
1087.71	358.737
1075.46	392.372
1063.19	391.464
1050.89	382.639
1038.55	360.689
1026.19	391.372
1013.81	379.98
1001.39	381.71
988.942	412.121
976.466	426.774
963.962	812.613
951.428	486.947
938.864	377.277
926.271	407.331
913.649	370.369
900.997	346.407
888.315	391.673
875.604	431.616
862.862	387.286
850.09	460.091
837.289	405.753
824.457	399.736
811.594	381.125
798.702	370.152
785.778	359.229
772.824	365.897
759.84	362.53
746.824	369.153
733.778	390.672
720.7	337.612
707.591	329.38
694.451	392.832
681.28	389.432
668.077	354.079
654.843	407.199
641.576	440.486
628.279	432.109
614.949	452.993
601.587	456.767
588.193	470.213
574.767	437.651
561.308	402.829
547.817	416.297
534.294	424.897
520.738	402.32
507.149	415.683
493.527	426.594
479.872	397.033
466.184	448.25
452.463	501.58
438.708	486.202
424.92	492.085
411.099	432.171
397.243	435.805
383.354	444.093
369.431	431.353
355.474	444.256
341.483	403.726
327.457	465.233
313.397	471.021
299.303	485.99
285.174	503.179
271.01	465.272
256.812	500.71
242.578	535.97
228.309	541.476
214.005	533.332
199.666	543.336
185.291	607.485
170.88	540.654
156.434	608.977
141.952	620.917
127.434	708.818
112.88	776.203
100.536	710.022

File: Set1Sample2_7(dark_spot) - 1_.txt
3201.19	-12.6336
3193.47	0
3185.73	29.3673
3177.97	33.4967
3170.2	4.17886
3162.42	-8.34128
3154.62	12.4873
3146.8	8.30847
3138.97	-8.2921
3131.12	4.13787
3123.26	20.6486
3115.38	0
3107.49	16.4537
3099.58	0
3091.65	4.09717
3083.71	-12.2672
3075.76	8.16192
3067.78	12.2186
3059.79	20.324
3051.79	4.05673
3043.77	8.09736
3035.73	8.08128
3027.68	0
3019.62	-16.0983
3011.53	-16.0663
3003.43	-12.0257
2995.31	8.00117
2987.18	15.9704
2979.03	23.9079
2970.87	7.95337
2962.69	39.6874
2954.49	7.92161
2946.27	19.7644
2938.04	15.7799
2929.8	3.93707
2921.53	23.5751
2913.25	27.4491
2904.96	23.4806
2896.64	23.4334
2888.31	42.8749
2879.96	35.0089
2871.6	19.4103
2863.22	46.4908
2854.82	30.9314
2846.41	7.71726
2837.97	23.1051
2829.53	15.3723
2821.06	26.8471
2812.58	0
2804.08	22.9188
2795.56	22.8724
2787.02	22.8261
2778.47	34.1697
2769.9	37.8894
2761.31	26.4687
2752.71	22.6414
2744.09	33.893
2735.45	0
2726.79	26.2541
2718.12	7.48589
2709.42	3.73531
2700.71	14.9108
2691.99	22.3205
2683.24	14.85
2674.48	14.8196
2665.69	14.7893
2656.89	7.37951
2648.08	25.7754
2639.24	33.0718
2630.39	14.6685
2621.51	10.9788
2612.62	54.781
2603.71	36.4456
2594.79	21.8224
2585.84	21.7775
2576.88	28.9768
2567.89	21.6878
2558.89	18.0359
2549.87	17.9987
2540.83	17.9615
2531.78	21.5092
2522.7	35.7746
2513.61	14.2802
2504.49	46.3145
2495.36	3.55527
2486.21	14.1916
2477.04	28.3242
2467.85	17.6659
2458.64	31.7324
2449.41	52.7774
2440.16	28.0893
2430.9	31.5346
2421.61	17.4827
2412.31	31.4032
2402.98	34.8196
2393.64	24.3228
2384.27	10.4022
2374.89	44.9821
2365.49	24.1704
2356.06	24.1197
2346.62	48.1382
2337.16	27.4498
2327.68	37.6642
2318.17	23.9178
2308.65	23.8674
2299.11	44.2319
2289.55	57.7198
2279.96	37.2694
2270.36	47.3337
2260.74	84.3459
2251.09	43.7672
2241.43	47.0342
2231.74	53.6396
2222.04	43.4898
2212.31	56.7508
2202.56	39.9744
2192.8	53.186
2183.01	26.5365
2173.2	56.2701
2163.37	46.2415
2153.52	69.2145
2143.65	65.7781
2133.75	65.6378
2123.84	68.7726
2113.9	32.6789
2103.95	71.7398
2093.97	68.3324
2083.97	55.1983
2073.95	42.12
2063.91	58.1949
2053.84	67.7483
2043.76	67.6028
2033.65	77.0942
2023.52	70.5176
2013.37	54.3736
2003.2	67.0226
1993	54.1394
1982.78	76.2671
1972.54	88.7861
1962.28	79.1019
1952	97.8742
1941.69	81.9103
1931.37	78.5892
1921.01	56.4615
1910.64	87.6383
1900.25	74.9554
1889.83	99.7233
1879.39	93.2871
1868.92	77.57
1858.44	99.0732
1847.93	89.5892
1837.39	123.302
1826.84	116.881
1816.26	131.97
1805.66	94.9333
1795.03	137.505
1784.38	125.007
1773.71	115.606
1763.02	136.602
1752.3	130.244
1741.55	114.846
1730.79	117.609
1720	123.367
1709.18	120.093
1698.35	191.725
1687.48	173.367
1676.6	164.036
1665.69	148.794
1654.75	160.342
1643.8	177.763
1632.81	165.544
1621.81	197.622
1610.77	147.151
1599.72	193.808
1588.64	164.077
1577.53	152.018
1566.4	163.347
1555.25	165.893
1544.07	159.715
1532.86	179.639
1521.63	161.892
1510.37	181.721
1499.09	181.314
1487.79	195.265
1476.45	200.557
1465.1	182.954
1453.71	193.952
1442.31	190.669
1430.87	210.116
1419.41	212.475
1407.93	178.076
1396.41	225.618
1384.88	219.48
1373.31	202.139
1361.72	224.09
1350.11	229.172
1338.46	225.863
1326.79	219.786
1315.1	216.511
1303.37	238.174
1291.62	240.395
1279.85	234.334
1268.04	211.795
1256.21	216.8
1244.36	216.305
1232.47	213.078
1220.56	152.629
1208.62	190.349
1196.66	200.765
1184.66	170.529
1172.64	175.539
1160.59	202.079
1148.51	163.979
1136.41	211.878
1124.28	176.604
1112.11	181.535
1099.93	218.405
1087.71	188.669
1075.46	198.837
1063.19	185.152
1050.89	211.111
1038.55	205.356
1026.19	220.639
1013.81	230.608
1001.39	185.626
988.942	224.319
976.466	242.012
963.962	477.702
951.428	308.227
938.864	186.054
926.271	193.353
913.649	213.476
900.997	202.712
888.315	217.596
875.604	209.423
862.862	221.671
850.09	226.233
837.289	205.412
824.457	207.458
811.594	179.204
798.702	183.817
785.778	213.527
772.824	170.418
759.84	150.012
746.824	209.519
733.778	191.603
720.7	193.631
707.591	208.029
694.451	219.887
681.28	207.04
668.077	179.498
654.843	215.865
641.576	205.56
628.279	192.862
614.949	192.4
601.587	225.954
588.193	242.378
574.767	198.273
561.308	207.445
547.817	226.196
534.294	228.052
520.738	198.765
507.149	231.731
493.527	216.872
479.872	225.857
466.184	265.629
452.463	250.79
438.708	250.182
424.92	261.347
411.099	246.619
397.243	257.734
383.354	224.384
369.431	268.138
355.474	262.832
341.483	245.948
327.457	254.605
313.397	244.746
299.303	223.417
285.174	271.119
271.01	288.79
256.812	265.216
242.578	273.687
228.309	268.463
214.005	304.113
199.666	310.154
185.291	300.355
170.88	328.898
156.434	325.836
141.952	345.203
127.434	373.415
112.88	388.101
100.536	333.866

File: Set1Sample2_7(light_spot) - 1_.txt
3201.19	-4.21121
3193.47	8.40717
3185.73	29.3673
3177.97	0
3170.2	29.252
3162.42	12.5119
3154.62	20.8122
3146.8	20.7712
3138.97	8.2921
3131.12	-4.13787
3123.26	20.6486
3115.38	4.12156
3107.49	12.3402
3099.58	12.3159
3091.65	12.2915
3083.71	20.4453
3075.76	0
3067.78	12.2186
3059.79	8.1296
3051.79	0
3043.77	20.2434
3035.73	28.2845
3027.68	28.2282
3019.62	12.0738
3011.53	16.0663
3003.43	16.0343
2995.31	40.0059
2987.18	11.9778
2979.03	15.9386
2970.87	23.8601
2962.69	27.7812
2954.49	15.8432
2946.27	23.7173
2938.04	35.5047
2929.8	43.3077
2921.53	19.6459
2913.25	31.3704
2904.96	23.4806
2896.64	58.5835
2888.31	31.1817
2879.96	35.0089
2871.6	34.9385
2863.22	34.8681
2854.82	27.065
2846.41	23.1518
2837.97	3.85084
2829.53	11.5292
2821.06	7.67061
2812.58	15.3102
2804.08	22.9188
2795.56	19.0604
2787.02	34.2392
2778.47	22.7798
2769.9	22.7336
2761.31	22.6875
2752.71	22.6414
2744.09	0
2735.45	11.2747
2726.79	18.7529
2718.12	29.9436
2709.42	18.6766
2700.71	22.3662
2691.99	29.7607
2683.24	14.85
2674.48	3.7049
2665.69	36.9732
2656.89	40.5873
2648.08	14.7288
2639.24	14.6986
2630.39	25.6698
2621.51	10.9788
2612.62	32.8686
2603.71	29.1565
2594.79	25.4595
2585.84	18.1479
2576.88	18.1105
2567.89	28.9171
2558.89	-10.8215
2549.87	46.7966
2540.83	35.923
2531.78	28.679
2522.7	39.352
2513.61	49.9807
2504.49	24.9386
2495.36	46.2185
2486.21	42.5747
2477.04	28.3242
2467.85	24.7322
2458.64	-3.52583
2449.41	45.7404
2440.16	10.5335
2430.9	42.0462
2421.61	31.4689
2412.31	17.4462
2402.98	20.8918
2393.64	45.1709
2384.27	27.7393
2374.89	44.9821
2365.49	24.1704
2356.06	27.5654
2346.62	27.5076
2337.16	58.3309
2327.68	54.7843
2318.17	30.7514
2308.65	23.8674
2299.11	51.0368
2289.55	40.7434
2279.96	23.7169
2270.36	37.1907
2260.74	10.1215
2251.09	37.0338
2241.43	23.5171
2231.74	43.5822
2222.04	56.8713
2212.31	43.3976
2202.56	46.6368
2192.8	43.2136
2183.01	36.4877
2173.2	43.0301
2163.37	46.2415
2153.52	46.143
2143.65	59.2003
2133.75	72.2016
2123.84	36.0237
2113.9	42.4825
2103.95	71.7398
2093.97	71.5863
2083.97	32.4696
2073.95	45.36
2063.91	51.7288
2053.84	80.6527
2043.76	48.2877
2033.65	73.8819
2023.52	54.4909
2013.37	83.1596
2003.2	60.6395
1993	82.8014
1982.78	50.8447
1972.54	63.4186
1962.28	91.7582
1952	88.4025
1941.69	78.7599
1931.37	59.7278
1921.01	43.9145
1910.64	62.5988
1900.25	78.0785
1889.83	87.2579
1879.39	105.725
1868.92	93.084
1858.44	99.0732
1847.93	101.946
1837.39	101.724
1826.84	92.2742
1816.26	101.28
1805.66	110.245
1795.03	85.5584
1784.38	121.958
1773.71	91.2681
1763.02	115.352
1752.3	115.099
1741.55	108.801
1730.79	105.546
1720	99.2958
1709.18	123.095
1698.35	104.85
1687.48	149.454
1676.6	134.212
1665.69	133.915
1654.75	136.588
1643.8	139.248
1632.81	141.895
1621.81	150.429
1610.77	141.265
1599.72	120.396
1588.64	143.568
1577.53	146.171
1566.4	148.762
1555.25	154.251
1544.07	145.195
1532.86	141.973
1521.63	144.546
1510.37	135.569
1499.09	155.412
1487.79	157.935
1476.45	174.771
1465.1	185.813
1453.71	202.508
1442.31	204.898
1430.87	167.525
1419.41	184.145
1407.93	197.862
1396.41	172.034
1384.88	219.48
1373.31	196.524
1361.72	184.874
1350.11	229.172
1338.46	195.191
1326.79	236.479
1315.1	222.063
1303.37	188.324
1291.62	207.237
1279.85	206.765
1268.04	200.793
1256.21	189.357
1244.36	169.758
1232.47	183.029
1220.56	141.727
1208.62	149.56
1196.66	157.356
1184.66	165.116
1172.64	156.635
1160.59	153.58
1148.51	158.603
1136.41	166.284
1124.28	176.604
1112.11	186.875
1099.93	199.76
1087.71	175.383
1075.46	201.489
1063.19	201.022
1050.89	179.445
1038.55	184.294
1026.19	181.239
1013.81	204.403
1001.39	188.24
988.942	177.369
976.466	210.785
963.962	597.128
951.428	323.768
938.864	180.886
926.271	190.775
913.649	190.328
900.997	200.146
888.315	215.036
875.604	222.193
862.862	178.356
850.09	218.607
837.289	218.092
824.457	204.928
811.594	148.916
798.702	186.335
785.778	155.749
772.824	185.455
759.84	172.514
746.824	167.117
733.778	176.673
720.7	176.254
707.591	180.787
694.451	217.417
681.28	189.786
668.077	213.922
654.843	179.07
641.576	230.032
628.279	209.951
614.949	245.98
601.587	247.82
588.193	247.226
574.767	234.542
561.308	233.978
547.817	226.196
534.294	232.853
520.738	234.686
507.149	234.12
493.527	224.022
479.872	259.142
466.184	263.258
452.463	288.645
438.708	304.467
424.92	306.082
411.099	284.199
397.243	295.223
383.354	259.444
369.431	254.148
355.474	295.395
341.483	266.831
327.457	298.582
313.397	311.705
299.303	267.179
285.174	259.631
271.01	272.746
256.812	347.525
242.578	294.213
228.309	302.589
214.005	326.808
199.666	321.474
185.291	336.488
170.88	380.71
156.434	357.296
141.952	365.377
127.434	393.539
112.88	439.402
100.536	402.865

File: Set1Sample2_10 - 1_.txt
3201.19	4.21121
3193.47	16.8143
3185.73	8.39066
3177.97	12.5613
3170.2	25.0732
3162.42	29.1945
3154.62	8.32486
3146.8	-8.30847
3138.97	-8.2921
3131.12	16.5515
3123.26	0
3115.38	-16.4862
3107.49	8.22683
3099.58	20.5264
3091.65	0
3083.71	4.08906
3075.76	16.3238
3067.78	4.07287
3059.79	8.1296
3051.79	0
3043.77	8.09736
3035.73	-4.04064
3027.68	4.03261
3019.62	0
3011.53	20.0829
3003.43	4.00858
2995.31	28.0041
2987.18	-15.9704
2979.03	15.9386
2970.87	19.8834
2962.69	-11.9062
2954.49	7.92161
2946.27	0
2938.04	15.7799
2929.8	35.4336
2921.53	23.5751
2913.25	27.4491
2904.96	46.9611
2896.64	-3.90557
2888.31	23.3863
2879.96	15.5595
2871.6	7.7641
2863.22	58.1135
2854.82	11.5993
2846.41	15.4345
2837.97	26.9559
2829.53	0
2821.06	23.0118
2812.58	11.4827
2804.08	11.4594
2795.56	-11.4362
2787.02	7.6087
2778.47	22.7798
2769.9	18.9447
2761.31	22.6875
2752.71	30.1885
2744.09	7.53179
2735.45	3.75823
2726.79	18.7529
2718.12	26.2006
2709.42	0
2700.71	22.3662
2691.99	14.8803
2683.24	11.1375
2674.48	7.4098
2665.69	40.6705
2656.89	33.2078
2648.08	22.0932
2639.24	7.3493
2630.39	25.6698
2621.51	18.2979
2612.62	29.2166
2603.71	18.2228
2594.79	14.5483
2585.84	7.25916
2576.88	0
2567.89	7.22927
2558.89	10.8215
2549.87	7.19947
2540.83	14.3692
2531.78	3.58487
2522.7	14.3098
2513.61	14.2802
2504.49	14.2506
2495.36	-7.11054
2486.21	21.2874
2477.04	7.08106
2467.85	17.6659
2458.64	14.1033
2449.41	7.03698
2440.16	21.067
2430.9	35.0385
2421.61	34.9654
2412.31	48.8494
2402.98	34.8196
2393.64	10.424
2384.27	20.8045
2374.89	6.92032
2365.49	20.7175
2356.06	17.2284
2346.62	20.6307
2337.16	20.5874
2327.68	34.2402
2318.17	34.1682
2308.65	13.6385
2299.11	6.80491
2289.55	30.5576
2279.96	20.3288
2270.36	47.3337
2260.74	20.243
2251.09	37.0338
2241.43	6.71917
2231.74	26.8198
2222.04	26.763
2212.31	23.368
2202.56	53.2992
2192.8	29.9171
2183.01	33.1706
2173.2	13.24
2163.37	33.0296
2153.52	23.0715
2143.65	29.6001
2133.75	29.537
2123.84	36.0237
2113.9	45.7504
2103.95	45.6526
2093.97	45.5549
2083.97	22.7287
2073.95	38.88
2063.91	61.4279
2053.84	45.1655
2043.76	25.7534
2033.65	44.9716
2023.52	60.9016
2013.37	38.3813
2003.2	41.4902
1993	54.1394
1982.78	41.3113
1972.54	38.0512
1962.28	34.8048
1952	50.5157
1941.69	63.0079
1931.37	59.7278
1921.01	59.5982
1910.64	75.1186
1900.25	68.7091
1889.83	52.978
1879.39	40.4244
1868.92	55.8504
1858.44	83.593
1847.93	71.0535
1837.39	73.981
1826.84	95.35
1816.26	76.727
1805.66	55.1226
1795.03	67.2245
1784.38	73.175
1773.71	82.1413
1763.02	72.8542
1752.3	96.9254
1741.55	90.6678
1730.79	114.593
1720	78.233
1709.18	87.0675
1698.35	98.8582
1687.48	101.629
1676.6	101.404
1665.69	119.035
1654.75	89.0788
1643.8	91.8441
1632.81	100.509
1621.81	106.185
1610.77	79.4618
1599.72	96.904
1588.64	108.408
1577.53	116.937
1566.4	122.51
1555.25	96.0432
1544.07	136.483
1532.86	139.076
1521.63	138.765
1510.37	141.338
1499.09	117.998
1487.79	114.862
1476.45	123.199
1465.1	142.933
1453.71	154.02
1442.31	128.061
1430.87	164.685
1419.41	150.149
1407.93	161.117
1396.41	143.831
1384.88	182.9
1373.31	188.101
1361.72	168.067
1350.11	170.481
1338.46	189.614
1326.79	180.837
1315.1	152.668
1303.37	177.246
1291.62	223.816
1279.85	146.114
1268.04	148.531
1256.21	142.704
1244.36	150.592
1232.47	136.589
1220.56	119.923
1208.62	133.245
1196.66	146.504
1184.66	132.634
1172.64	137.73
1160.59	169.746
1148.51	155.915
1136.41	139.464
1124.28	144.494
1112.11	181.535
1099.93	165.135
1087.71	170.068
1075.46	167.023
1063.19	166.637
1050.89	145.139
1038.55	184.294
1026.19	141.839
1013.81	146.751
1001.39	149.024
988.942	172.152
976.466	161.341
963.962	321.93
951.428	222.752
938.864	162.798
926.271	149.527
913.649	156.892
900.997	189.882
888.315	138.238
875.604	163.452
862.862	168.164
850.09	195.729
837.289	182.589
824.457	159.388
811.594	161.536
798.702	118.348
785.778	130.629
772.824	127.813
759.84	165.014
746.824	147.162
733.778	159.255
720.7	126.605
707.591	175.834
694.451	160.592
681.28	170.068
668.077	154.909
654.843	156.993
641.576	163.959
628.279	166.008
614.949	170.481
601.587	145.777
588.193	208.445
574.767	183.765
561.308	154.377
547.817	168.444
534.294	170.439
520.738	186.791
507.149	157.673
493.527	178.741
479.872	173.554
466.184	182.62
452.463	194.007
438.708	181.736
424.92	200.13
411.099	178.505
397.243	196.815
383.354	191.661
369.431	186.531
355.474	183.75
341.483	211.144
327.457	210.628
313.397	182.405
299.303	198.081
285.174	215.976
271.01	203.986
256.812	210.344
242.578	218.95
228.309	243.437
214.005	242.836
199.666	230.918
185.291	232.606
170.88	243.294
156.434	280.893
141.952	322.787
127.434	342.111
112.88	428.25
100.536	402.865

File: Set1Sample2_19 - 1_.txt
3201.19	29.4785
3193.47	21.0179
3185.73	16.7813
3177.97	8.37418
3170.2	8.35772
3162.42	12.5119
3154.62	8.32486
3146.8	33.2339
3138.97	8.2921
3131.12	20.6894
3123.26	-16.5188
3115.38	20.6078
3107.49	8.22683
3099.58	16.4211
3091.65	16.3887
3083.71	8.17812
3075.76	12.2429
3067.78	16.2915
3059.79	28.4536
3051.79	20.2837
3043.77	4.04868
3035.73	16.1626
3027.68	4.03261
3019.62	8.04917
3011.53	-12.0497
3003.43	16.0343
2995.31	20.0029
2987.18	51.9039
2979.03	3.98464
2970.87	-15.9067
2962.69	15.875
2954.49	35.6473
2946.27	15.8115
2938.04	15.7799
2929.8	15.7483
2921.53	19.6459
2913.25	62.7407
2904.96	27.394
2896.64	42.9612
2888.31	3.89772
2879.96	27.2291
2871.6	15.5282
2863.22	209.209
2854.82	15.4657
2846.41	27.0104
2837.97	3.85084
2829.53	19.2153
2821.06	7.67061
2812.58	19.1378
2804.08	19.099
2795.56	0
2787.02	3.80435
2778.47	26.5765
2769.9	26.5226
2761.31	-3.78125
2752.71	18.8678
2744.09	22.5954
2735.45	0
2726.79	11.2518
2718.12	26.2006
2709.42	14.9413
2700.71	18.6385
2691.99	18.6004
2683.24	40.8374
2674.48	29.6392
2665.69	33.2759
2656.89	25.8283
2648.08	18.411
2639.24	18.3732
2630.39	25.6698
2621.51	21.9575
2612.62	40.1728
2603.71	10.9337
2594.79	21.8224
2585.84	43.555
2576.88	14.4884
2567.89	-3.61464
2558.89	18.0359
2549.87	21.5984
2540.83	28.7384
2531.78	28.679
2522.7	10.7324
2513.61	10.7102
2504.49	24.9386
2495.36	17.7764
2486.21	39.0268
2477.04	24.7837
2467.85	21.199
2458.64	31.7324
2449.41	3.51849
2440.16	7.02233
2430.9	17.5192
2421.61	31.4689
2412.31	41.8709
2402.98	27.8557
2393.64	27.7975
2384.27	34.6742
2374.89	3.46016
2365.49	6.90582
2356.06	17.2284
2346.62	24.0691
2337.16	27.4498
2327.68	0
2318.17	10.2505
2308.65	30.6867
2299.11	34.0245
2289.55	44.1387
2279.96	37.2694
2270.36	37.1907
2260.74	23.6169
2251.09	37.0338
2241.43	40.315
2231.74	6.70495
2222.04	46.8352
2212.31	30.0445
2202.56	33.312
2192.8	59.8343
2183.01	33.1706
2173.2	46.3401
2163.37	36.3326
2153.52	39.5512
2143.65	36.178
2133.75	49.2284
2123.84	42.5735
2113.9	45.7504
2103.95	45.6526
2093.97	55.3167
2083.97	55.1983
2073.95	48.6
2063.91	35.5635
2053.84	38.7133
2043.76	51.5069
2033.65	48.1839
2023.52	48.0802
2013.37	31.9845
2003.2	44.6817
1993	63.6934
1982.78	60.3781
1972.54	44.393
1962.28	60.1175
1952	63.1446
1941.69	53.5567
1931.37	72.3021
1921.01	65.8717
1910.64	46.9491
1900.25	62.4628
1889.83	62.327
1879.39	83.9584
1868.92	86.8784
1858.44	65.0168
1847.93	101.946
1837.39	80.1461
1826.84	64.5919
1816.26	107.418
1805.66	91.8709
1795.03	82.5027
1784.38	88.4198
1773.71	100.395
1763.02	200.349
1752.3	84.8098
1741.55	120.89
1730.79	93.4838
1720	102.305
1709.18	90.0699
1698.35	80.884
1687.48	116.574
1676.6	125.264
1665.69	119.035
1654.75	112.833
1643.8	139.248
1632.81	97.5527
1621.81	109.135
1610.77	129.493
1599.72	149.761
1588.64	102.548
1577.53	134.478
1566.4	107.926
1555.25	113.506
1544.07	133.579
1532.86	118.794
1521.63	106.964
1510.37	121.147
1499.09	132.388
1487.79	152.192
1476.45	160.445
1465.1	154.367
1453.71	159.725
1442.31	173.594
1430.87	178.882
1419.41	184.145
1407.93	172.423
1396.41	163.573
1384.88	163.203
1373.31	160.026
1361.72	162.465
1350.11	162.097
1338.46	167.306
1326.79	166.926
1315.1	155.444
1303.37	188.324
1291.62	198.948
1279.85	176.44
1268.04	154.033
1256.21	164.658
1244.36	161.544
1232.47	144.784
1220.56	158.08
1208.62	135.964
1196.66	162.782
1184.66	173.236
1172.64	162.036
1160.59	137.414
1148.51	139.786
1136.41	147.51
1124.28	171.252
1112.11	168.187
1099.93	205.087
1087.71	154.124
1075.46	180.279
1063.19	150.766
1050.89	187.361
1038.55	202.723
1026.19	181.239
1013.81	178.197
1001.39	183.012
988.942	232.144
976.466	210.785
963.962	555.589
951.428	315.998
938.864	152.461
926.271	183.041
913.649	164.608
900.997	187.316
888.315	199.676
875.604	181.33
862.862	175.808
850.09	162.684
837.289	172.445
824.457	149.268
811.594	159.012
798.702	166.191
785.778	153.237
772.824	180.442
759.84	165.014
746.824	169.611
733.778	189.115
720.7	158.876
707.591	185.74
694.451	177.886
681.28	182.392
668.077	191.793
654.843	169.258
641.576	166.406
628.279	190.421
614.949	197.271
601.587	204.087
588.193	213.293
574.767	200.691
561.308	217.093
547.817	204.539
534.294	194.444
520.738	177.212
507.149	148.117
493.527	162.058
479.872	171.176
466.184	201.594
452.463	210.569
438.708	214.779
424.92	237.802
411.099	204.342
397.243	222.589
383.354	198.673
369.431	205.184
355.474	204.683
341.483	164.739
327.457	212.943
313.397	228.584
299.303	188.868
285.174	211.381
271.01	226.906
256.812	230.921
242.578	221.23
228.309	229.786
214.005	256.453
199.666	253.557
185.291	239.381
170.88	265.821
156.434	258.422
141.952	309.338
127.434	272.794
112.88	343.492
100.536	316.06